STUDYID,DOMAIN,USUBJID,SUBJID,RFSTDTC,RFENDTC,RFXSTDTC,RFXENDTC,RFICDTC,RFPENDTC,DTHDTC,DTHFL,SITEID,AGE,AGEU,SEX,RACE,ETHNIC,ARMCD,ARM,ACTARMCD,ACTARM,COUNTRY,DMDTC,DMDY,AESEQ,AESPID,AETERM,AELLT,AELLTCD,AEDECOD,AEPTCD,AEHLT,AEHLTCD,AEHLGT,AEHLGTCD,AEBODSYS,AEBDSYCD,AESOC,AESOCCD,AESEV,AESER,AEACN,AEREL,AEOUT,AESCAN,AESCONG,AESDISAB,AESDTH,AESHOSP,AESLIFE,AESOD,AEDTC,AESTDTC,AEENDTC,AESTDY,AEENDY,VISIT
CDISCPILOT01,AE,01-701-1015,1015,1/2/2014,7/2/2014,1/2/2014,7/2/2014,,2014-07-02T11:45,,,701,63,YEARS,F,WHITE,HISPANIC OR LATINO,Pbo,Placebo,Pbo,Placebo,USA,12/26/2013,-7,1,E07,APPLICATION SITE ERYTHEMA,APPLICATION SITE REDNESS,,APPLICATION SITE ERYTHEMA,,HLT_0617,,HLGT_0152,,GENERAL DISORDERS AND ADMINISTRATION SITE CONDITIONS,,GENERAL DISORDERS AND ADMINISTRATION SITE CONDITIONS,,MILD,N,,PROBABLE,NOT RECOVERED/NOT RESOLVED,N,N,N,N,N,N,N,1/16/2014,1/3/2014,,2,,Phase 1
CDISCPILOT01,AE,01-701-1015,1015,1/2/2014,7/2/2014,1/2/2014,7/2/2014,,2014-07-02T11:45,,,701,63,YEARS,F,WHITE,HISPANIC OR LATINO,Pbo,Placebo,Pbo,Placebo,USA,12/26/2013,-7,2,E08,APPLICATION SITE PRURITUS,APPLICATION SITE ITCHING,,APPLICATION SITE PRURITUS,,HLT_0317,,HLGT_0338,,GENERAL DISORDERS AND ADMINISTRATION SITE CONDITIONS,,GENERAL DISORDERS AND ADMINISTRATION SITE CONDITIONS,,MILD,N,,PROBABLE,NOT RECOVERED/NOT RESOLVED,N,N,N,N,N,N,N,1/16/2014,1/3/2014,,2,,Phase 1
CDISCPILOT01,AE,01-701-1015,1015,1/2/2014,7/2/2014,1/2/2014,7/2/2014,,2014-07-02T11:45,,,701,63,YEARS,F,WHITE,HISPANIC OR LATINO,Pbo,Placebo,Pbo,Placebo,USA,12/26/2013,-7,3,E06,DIARRHOEA,DIARRHEA,,DIARRHOEA,,HLT_0148,,HLGT_0588,,GASTROINTESTINAL DISORDERS,,GASTROINTESTINAL DISORDERS,,MILD,N,,REMOTE,RECOVERED/RESOLVED,N,N,N,N,N,N,N,1/16/2014,1/9/2014,1/11/2014,8,10,Phase 1
CDISCPILOT01,AE,01-701-1023,1023,8/5/2012,9/2/2012,8/5/2012,9/1/2012,,2/18/2013,,,701,64,YEARS,M,WHITE,HISPANIC OR LATINO,Pbo,Placebo,Pbo,Placebo,USA,7/22/2012,-14,3,E10,ATRIOVENTRICULAR BLOCK SECOND DEGREE,AV BLOCK SECOND DEGREE,,ATRIOVENTRICULAR BLOCK SECOND DEGREE,,HLT_0415,,HLGT_0086,,CARDIAC DISORDERS,,CARDIAC DISORDERS,,MILD,N,,POSSIBLE,NOT RECOVERED/NOT RESOLVED,N,N,N,N,N,N,N,8/27/2012,8/26/2012,,22,,Phase 1
CDISCPILOT01,AE,01-701-1023,1023,8/5/2012,9/2/2012,8/5/2012,9/1/2012,,2/18/2013,,,701,64,YEARS,M,WHITE,HISPANIC OR LATINO,Pbo,Placebo,Pbo,Placebo,USA,7/22/2012,-14,1,E08,ERYTHEMA,ERYTHEMA,,ERYTHEMA,,HLT_0284,,HLGT_0192,,SKIN AND SUBCUTANEOUS TISSUE DISORDERS,,SKIN AND SUBCUTANEOUS TISSUE DISORDERS,,MILD,N,,POSSIBLE,NOT RECOVERED/NOT RESOLVED,N,N,N,N,N,N,N,8/27/2012,8/7/2012,8/30/2012,3,26,Phase 1
CDISCPILOT01,AE,01-701-1023,1023,8/5/2012,9/2/2012,8/5/2012,9/1/2012,,2/18/2013,,,701,64,YEARS,M,WHITE,HISPANIC OR LATINO,Pbo,Placebo,Pbo,Placebo,USA,7/22/2012,-14,2,E09,ERYTHEMA,LOCALIZED ERYTHEMA,,ERYTHEMA,,HLT_0284,,HLGT_0192,,SKIN AND SUBCUTANEOUS TISSUE DISORDERS,,SKIN AND SUBCUTANEOUS TISSUE DISORDERS,,MODERATE,N,,PROBABLE,NOT RECOVERED/NOT RESOLVED,N,N,N,N,N,N,N,8/27/2012,8/7/2012,,3,,Phase 1
CDISCPILOT01,AE,01-701-1023,1023,8/5/2012,9/2/2012,8/5/2012,9/1/2012,,2/18/2013,,,701,64,YEARS,M,WHITE,HISPANIC OR LATINO,Pbo,Placebo,Pbo,Placebo,USA,7/22/2012,-14,4,E08,ERYTHEMA,ERYTHEMA,,ERYTHEMA,,HLT_0284,,HLGT_0192,,SKIN AND SUBCUTANEOUS TISSUE DISORDERS,,SKIN AND SUBCUTANEOUS TISSUE DISORDERS,,MILD,N,,POSSIBLE,RECOVERED/RESOLVED,N,N,N,N,N,N,N,9/2/2012,8/7/2012,8/30/2012,3,26,Phase 1
CDISCPILOT01,AE,01-701-1028,1028,7/19/2013,1/14/2014,7/19/2013,1/14/2014,,2014-01-14T11:10,,,701,71,YEARS,M,WHITE,NOT HISPANIC OR LATINO,Xan_Hi,Xanomeline High Dose,Xan_Hi,Xanomeline High Dose,USA,7/11/2013,-8,1,E04,APPLICATION SITE ERYTHEMA,APPLICATION SITE ERYTHEMA,,APPLICATION SITE ERYTHEMA,,HLT_0617,,HLGT_0152,,GENERAL DISORDERS AND ADMINISTRATION SITE CONDITIONS,,GENERAL DISORDERS AND ADMINISTRATION SITE CONDITIONS,,MILD,N,,POSSIBLE,NOT RECOVERED/NOT RESOLVED,N,N,N,N,N,N,N,8/1/2013,7/21/2013,,3,,Phase 1
CDISCPILOT01,AE,01-701-1028,1028,7/19/2013,1/14/2014,7/19/2013,1/14/2014,,2014-01-14T11:10,,,701,71,YEARS,M,WHITE,NOT HISPANIC OR LATINO,Xan_Hi,Xanomeline High Dose,Xan_Hi,Xanomeline High Dose,USA,7/11/2013,-8,2,E05,APPLICATION SITE PRURITUS,APPLICATION SITE ITCHING,,APPLICATION SITE PRURITUS,,HLT_0317,,HLGT_0338,,GENERAL DISORDERS AND ADMINISTRATION SITE CONDITIONS,,GENERAL DISORDERS AND ADMINISTRATION SITE CONDITIONS,,MILD,N,,PROBABLE,NOT RECOVERED/NOT RESOLVED,N,N,N,N,N,N,N,8/14/2013,8/8/2013,,21,,Phase 1
CDISCPILOT01,DM,01-701-1033,1033,3/18/2014,4/14/2014,3/18/2014,3/31/2014,,9/15/2014,,,701,74,YEARS,M,WHITE,NOT HISPANIC OR LATINO,Xan_Lo,Xanomeline Low Dose,Xan_Lo,Xanomeline Low Dose,USA,3/10/2014,-8,,,,,,,,,,,,,,,,,,,,,,,,,,,,,,,,,Phase 1
CDISCPILOT01,AE,01-701-1034,1034,7/1/2014,12/30/2014,7/1/2014,12/30/2014,,2014-12-30T09:50,,,701,77,YEARS,F,WHITE,NOT HISPANIC OR LATINO,Xan_Hi,Xanomeline High Dose,Xan_Hi,Xanomeline High Dose,USA,6/24/2014,-7,1,E08,APPLICATION SITE PRURITUS,APPLICATION SITE ITCHING,,APPLICATION SITE PRURITUS,,HLT_0317,,HLGT_0338,,GENERAL DISORDERS AND ADMINISTRATION SITE CONDITIONS,,GENERAL DISORDERS AND ADMINISTRATION SITE CONDITIONS,,MILD,N,,PROBABLE,NOT RECOVERED/NOT RESOLVED,N,N,N,N,N,N,N,9/25/2014,8/27/2014,,58,,Phase 1
CDISCPILOT01,AE,01-701-1034,1034,7/1/2014,12/30/2014,7/1/2014,12/30/2014,,2014-12-30T09:50,,,701,77,YEARS,F,WHITE,NOT HISPANIC OR LATINO,Xan_Hi,Xanomeline High Dose,Xan_Hi,Xanomeline High Dose,USA,6/24/2014,-7,2,E07,FATIGUE,FATIGUE,,FATIGUE,,HLT_0043,,HLGT_0181,,GENERAL DISORDERS AND ADMINISTRATION SITE CONDITIONS,,GENERAL DISORDERS AND ADMINISTRATION SITE CONDITIONS,,MILD,N,,POSSIBLE,NOT RECOVERED/NOT RESOLVED,N,N,N,N,N,N,N,11/18/2014,11/2/2014,,125,,Phase 2
CDISCPILOT01,AE,01-701-1047,1047,2/12/2013,3/29/2013,2/12/2013,3/9/2013,,7/28/2013,,,701,85,YEARS,F,WHITE,NOT HISPANIC OR LATINO,Pbo,Placebo,Pbo,Placebo,USA,1/22/2013,-21,4,E09,BUNDLE BRANCH BLOCK LEFT,LEFT BUNDLE BRANCH BLOCK,,BUNDLE BRANCH BLOCK LEFT,,HLT_0281,,HLGT_0721,,CARDIAC DISORDERS,,CARDIAC DISORDERS,,MILD,N,,NONE,NOT RECOVERED/NOT RESOLVED,N,N,N,N,N,N,N,3/10/2013,3/10/2013,,27,,Phase 1
CDISCPILOT01,AE,01-701-1047,1047,2/12/2013,3/29/2013,2/12/2013,3/9/2013,,7/28/2013,,,701,85,YEARS,F,WHITE,NOT HISPANIC OR LATINO,Pbo,Placebo,Pbo,Placebo,USA,1/22/2013,-21,1,E06,HIATUS HERNIA,HERNIA HIATAL,,HIATUS HERNIA,,HLT_0159,,HLGT_0109,,GASTROINTESTINAL DISORDERS,,GASTROINTESTINAL DISORDERS,,MODERATE,N,,NONE,NOT RECOVERED/NOT RESOLVED,N,N,N,N,N,N,N,2/12/2013,2/12/2013,2/12/2013,1,1,Phase 1
CDISCPILOT01,AE,01-701-1047,1047,2/12/2013,3/29/2013,2/12/2013,3/9/2013,,7/28/2013,,,701,85,YEARS,F,WHITE,NOT HISPANIC OR LATINO,Pbo,Placebo,Pbo,Placebo,USA,1/22/2013,-21,2,E06,HIATUS HERNIA,HERNIA HIATAL,,HIATUS HERNIA,,HLT_0159,,HLGT_0109,,GASTROINTESTINAL DISORDERS,,GASTROINTESTINAL DISORDERS,,MODERATE,N,,NONE,RECOVERED/RESOLVED,N,N,N,N,N,N,N,2/25/2013,2/12/2013,2/12/2013,1,1,Phase 1
CDISCPILOT01,AE,01-701-1047,1047,2/12/2013,3/29/2013,2/12/2013,3/9/2013,,7/28/2013,,,701,85,YEARS,F,WHITE,NOT HISPANIC OR LATINO,Pbo,Placebo,Pbo,Placebo,USA,1/22/2013,-21,3,E08,UPPER RESPIRATORY TRACT INFECTION,UPPER RESPIRATORY INFECTION,,UPPER RESPIRATORY TRACT INFECTION,,HLT_0520,,HLGT_0489,,INFECTIONS AND INFESTATIONS,,INFECTIONS AND INFESTATIONS,,MILD,N,,NONE,NOT RECOVERED/NOT RESOLVED,N,N,N,N,N,N,N,3/10/2013,3/6/2013,,23,,Phase 1
CDISCPILOT01,AE,01-701-1097,1097,1/1/2014,7/9/2014,1/1/2014,7/9/2014,,2014-07-09T09:39,,,701,68,YEARS,M,WHITE,NOT HISPANIC OR LATINO,Xan_Lo,Xanomeline Low Dose,Xan_Lo,Xanomeline Low Dose,USA,12/23/2013,-9,4,E06,APPLICATION SITE PRURITUS,APPLICATION SITE ITCHING,,APPLICATION SITE PRURITUS,,HLT_0317,,HLGT_0338,,GENERAL DISORDERS AND ADMINISTRATION SITE CONDITIONS,,GENERAL DISORDERS AND ADMINISTRATION SITE CONDITIONS,,MILD,N,,POSSIBLE,NOT RECOVERED/NOT RESOLVED,N,N,N,N,N,N,N,2/26/2014,2/21/2014,,52,,Phase 1
CDISCPILOT01,AE,01-701-1097,1097,1/1/2014,7/9/2014,1/1/2014,7/9/2014,,2014-07-09T09:39,,,701,68,YEARS,M,WHITE,NOT HISPANIC OR LATINO,Xan_Lo,Xanomeline Low Dose,Xan_Lo,Xanomeline Low Dose,USA,12/23/2013,-9,10,E06,APPLICATION SITE PRURITUS,APPLICATION SITE ITCHING,,APPLICATION SITE PRURITUS,,HLT_0317,,HLGT_0338,,GENERAL DISORDERS AND ADMINISTRATION SITE CONDITIONS,,GENERAL DISORDERS AND ADMINISTRATION SITE CONDITIONS,,MODERATE,N,,POSSIBLE,NOT RECOVERED/NOT RESOLVED,N,N,N,N,N,N,N,5/21/2014,2/21/2014,,52,,Phase 1
CDISCPILOT01,AE,01-701-1097,1097,1/1/2014,7/9/2014,1/1/2014,7/9/2014,,2014-07-09T09:39,,,701,68,YEARS,M,WHITE,NOT HISPANIC OR LATINO,Xan_Lo,Xanomeline Low Dose,Xan_Lo,Xanomeline Low Dose,USA,12/23/2013,-9,3,E07,APPLICATION SITE VESICLES,APPLICATION SITE BLISTER,,APPLICATION SITE VESICLES,,HLT_0180,,HLGT_0576,,GENERAL DISORDERS AND ADMINISTRATION SITE CONDITIONS,,GENERAL DISORDERS AND ADMINISTRATION SITE CONDITIONS,,MILD,N,,PROBABLE,RECOVERED/RESOLVED,N,N,N,N,N,N,N,2/26/2014,2/20/2014,2/22/2014,51,53,Phase 1
CDISCPILOT01,AE,01-701-1097,1097,1/1/2014,7/9/2014,1/1/2014,7/9/2014,,2014-07-09T09:39,,,701,68,YEARS,M,WHITE,NOT HISPANIC OR LATINO,Xan_Lo,Xanomeline Low Dose,Xan_Lo,Xanomeline Low Dose,USA,12/23/2013,-9,1,E04,ERYTHEMA,ERYTHEMA,,ERYTHEMA,,HLT_0284,,HLGT_0192,,SKIN AND SUBCUTANEOUS TISSUE DISORDERS,,SKIN AND SUBCUTANEOUS TISSUE DISORDERS,,MILD,N,,POSSIBLE,NOT RECOVERED/NOT RESOLVED,N,N,N,N,N,N,N,1/15/2014,1/3/2014,,3,,Phase 1
CDISCPILOT01,AE,01-701-1097,1097,1/1/2014,7/9/2014,1/1/2014,7/9/2014,,2014-07-09T09:39,,,701,68,YEARS,M,WHITE,NOT HISPANIC OR LATINO,Xan_Lo,Xanomeline Low Dose,Xan_Lo,Xanomeline Low Dose,USA,12/23/2013,-9,9,E11,NASAL CONGESTION,NASAL CONGESTION,,NASAL CONGESTION,,HLT_0118,,HLGT_0549,,"RESPIRATORY, THORACIC AND MEDIASTINAL DISORDERS",,"RESPIRATORY, THORACIC AND MEDIASTINAL DISORDERS",,MILD,N,,NONE,RECOVERED/RESOLVED,N,N,N,N,N,N,N,4/23/2014,4/19/2014,4/22/2014,109,112,Phase 2
CDISCPILOT01,AE,01-701-1097,1097,1/1/2014,7/9/2014,1/1/2014,7/9/2014,,2014-07-09T09:39,,,701,68,YEARS,M,WHITE,NOT HISPANIC OR LATINO,Xan_Lo,Xanomeline Low Dose,Xan_Lo,Xanomeline Low Dose,USA,12/23/2013,-9,8,E10,PHARYNGOLARYNGEAL PAIN,SORE THROAT,,PHARYNGOLARYNGEAL PAIN,,HLT_0130,,HLGT_0402,,"RESPIRATORY, THORACIC AND MEDIASTINAL DISORDERS",,"RESPIRATORY, THORACIC AND MEDIASTINAL DISORDERS",,MILD,N,,NONE,RECOVERED/RESOLVED,N,N,N,N,N,N,N,4/23/2014,4/19/2014,4/22/2014,109,112,Phase 2
CDISCPILOT01,AE,01-701-1097,1097,1/1/2014,7/9/2014,1/1/2014,7/9/2014,,2014-07-09T09:39,,,701,68,YEARS,M,WHITE,NOT HISPANIC OR LATINO,Xan_Lo,Xanomeline Low Dose,Xan_Lo,Xanomeline Low Dose,USA,12/23/2013,-9,2,E05,PRURITUS GENERALISED,GENERALIZED PRURITUS,,PRURITUS GENERALISED,,HLT_0123,,HLGT_0689,,SKIN AND SUBCUTANEOUS TISSUE DISORDERS,,SKIN AND SUBCUTANEOUS TISSUE DISORDERS,,MODERATE,N,,POSSIBLE,RECOVERED/RESOLVED,N,N,N,N,N,N,N,2/26/2014,2/20/2014,2/20/2014,51,51,Phase 1
CDISCPILOT01,AE,01-701-1097,1097,1/1/2014,7/9/2014,1/1/2014,7/9/2014,,2014-07-09T09:39,,,701,68,YEARS,M,WHITE,NOT HISPANIC OR LATINO,Xan_Lo,Xanomeline Low Dose,Xan_Lo,Xanomeline Low Dose,USA,12/23/2013,-9,5,E08,PRURITUS GENERALISED,GENERALIZED PRURITUS,,PRURITUS GENERALISED,,HLT_0123,,HLGT_0689,,SKIN AND SUBCUTANEOUS TISSUE DISORDERS,,SKIN AND SUBCUTANEOUS TISSUE DISORDERS,,MODERATE,N,,POSSIBLE,RECOVERED/RESOLVED,N,N,N,N,N,N,N,3/26/2014,3/21/2014,3/21/2014,80,80,Phase 1
CDISCPILOT01,AE,01-701-1097,1097,1/1/2014,7/9/2014,1/1/2014,7/9/2014,,2014-07-09T09:39,,,701,68,YEARS,M,WHITE,NOT HISPANIC OR LATINO,Xan_Lo,Xanomeline Low Dose,Xan_Lo,Xanomeline Low Dose,USA,12/23/2013,-9,6,E12,PRURITUS GENERALISED,GENERALIZED PRURITUS,,PRURITUS GENERALISED,,HLT_0123,,HLGT_0689,,SKIN AND SUBCUTANEOUS TISSUE DISORDERS,,SKIN AND SUBCUTANEOUS TISSUE DISORDERS,,MODERATE,N,,POSSIBLE,RECOVERED/RESOLVED,N,N,N,N,N,N,N,4/23/2014,3/31/2014,3/31/2014,90,90,Phase 1
CDISCPILOT01,AE,01-701-1097,1097,1/1/2014,7/9/2014,1/1/2014,7/9/2014,,2014-07-09T09:39,,,701,68,YEARS,M,WHITE,NOT HISPANIC OR LATINO,Xan_Lo,Xanomeline Low Dose,Xan_Lo,Xanomeline Low Dose,USA,12/23/2013,-9,7,E09,PRURITUS GENERALISED,GENERALIZED PRURITUS,,PRURITUS GENERALISED,,HLT_0123,,HLGT_0689,,SKIN AND SUBCUTANEOUS TISSUE DISORDERS,,SKIN AND SUBCUTANEOUS TISSUE DISORDERS,,MODERATE,N,,POSSIBLE,RECOVERED/RESOLVED,N,N,N,N,N,N,N,4/23/2014,4/19/2014,4/20/2014,109,110,Phase 2
CDISCPILOT01,AE,01-701-1111,1111,9/7/2012,9/17/2012,9/7/2012,9/16/2012,,2/22/2013,,,701,81,YEARS,F,WHITE,NOT HISPANIC OR LATINO,Xan_Lo,Xanomeline Low Dose,Xan_Lo,Xanomeline Low Dose,USA,8/25/2012,-13,7,E16,ARTHRALGIA,GENERALIZED JOINT PAIN,,ARTHRALGIA,,HLT_0375,,HLGT_0610,,MUSCULOSKELETAL AND CONNECTIVE TISSUE DISORDERS,,MUSCULOSKELETAL AND CONNECTIVE TISSUE DISORDERS,,MODERATE,N,,NONE,NOT RECOVERED/NOT RESOLVED,N,N,N,N,N,N,N,9/17/2012,9/13/2012,,7,,Phase 1
CDISCPILOT01,AE,01-701-1111,1111,9/7/2012,9/17/2012,9/7/2012,9/16/2012,,2/22/2013,,,701,81,YEARS,F,WHITE,NOT HISPANIC OR LATINO,Xan_Lo,Xanomeline Low Dose,Xan_Lo,Xanomeline Low Dose,USA,8/25/2012,-13,8,E17,CELLULITIS,CELLULITIS OF LEG,,CELLULITIS,,HLT_0613,,HLGT_0066,,INFECTIONS AND INFESTATIONS,,INFECTIONS AND INFESTATIONS,,MODERATE,N,,NONE,NOT RECOVERED/NOT RESOLVED,N,N,N,N,N,N,N,9/17/2012,9/13/2012,,7,,Phase 1
CDISCPILOT01,AE,01-701-1111,1111,9/7/2012,9/17/2012,9/7/2012,9/16/2012,,2/22/2013,,,701,81,YEARS,F,WHITE,NOT HISPANIC OR LATINO,Xan_Lo,Xanomeline Low Dose,Xan_Lo,Xanomeline Low Dose,USA,8/25/2012,-13,1,E14,ERYTHEMA,ERYTHEMA,,ERYTHEMA,,HLT_0284,,HLGT_0192,,SKIN AND SUBCUTANEOUS TISSUE DISORDERS,,SKIN AND SUBCUTANEOUS TISSUE DISORDERS,,MILD,N,,NONE,NOT RECOVERED/NOT RESOLVED,N,N,N,N,N,N,N,9/5/2012,9/2/2012,9/7/2012,-5,1,Phase 1
CDISCPILOT01,AE,01-701-1111,1111,9/7/2012,9/17/2012,9/7/2012,9/16/2012,,2/22/2013,,,701,81,YEARS,F,WHITE,NOT HISPANIC OR LATINO,Xan_Lo,Xanomeline Low Dose,Xan_Lo,Xanomeline Low Dose,USA,8/25/2012,-13,4,E14,ERYTHEMA,ERYTHEMA,,ERYTHEMA,,HLT_0284,,HLGT_0192,,SKIN AND SUBCUTANEOUS TISSUE DISORDERS,,SKIN AND SUBCUTANEOUS TISSUE DISORDERS,,MILD,N,,NONE,RECOVERED/RESOLVED,N,N,N,N,N,N,N,9/17/2012,9/2/2012,9/7/2012,-5,1,Phase 1
CDISCPILOT01,AE,01-701-1111,1111,9/7/2012,9/17/2012,9/7/2012,9/16/2012,,2/22/2013,,,701,81,YEARS,F,WHITE,NOT HISPANIC OR LATINO,Xan_Lo,Xanomeline Low Dose,Xan_Lo,Xanomeline Low Dose,USA,8/25/2012,-13,3,E06,LOCALISED INFECTION,LOCALIZED INFECTION,,LOCALISED INFECTION,,HLT_0435,,HLGT_0557,,INFECTIONS AND INFESTATIONS,,INFECTIONS AND INFESTATIONS,,MODERATE,N,,NONE,NOT RECOVERED/NOT RESOLVED,N,N,N,N,N,N,N,9/17/2012,7/8/2012,,-61,,Phase 1
CDISCPILOT01,AE,01-701-1111,1111,9/7/2012,9/17/2012,9/7/2012,9/16/2012,,2/22/2013,,,701,81,YEARS,F,WHITE,NOT HISPANIC OR LATINO,Xan_Lo,Xanomeline Low Dose,Xan_Lo,Xanomeline Low Dose,USA,8/25/2012,-13,6,E18,MICTURITION URGENCY,URINARY URGENCY,,MICTURITION URGENCY,,HLT_0294,,HLGT_0483,,RENAL AND URINARY DISORDERS,,RENAL AND URINARY DISORDERS,,MILD,N,,NONE,NOT RECOVERED/NOT RESOLVED,N,N,N,N,N,N,N,9/17/2012,9/7/2012,,1,,Phase 1
CDISCPILOT01,AE,01-701-1111,1111,9/7/2012,9/17/2012,9/7/2012,9/16/2012,,2/22/2013,,,701,81,YEARS,F,WHITE,NOT HISPANIC OR LATINO,Xan_Lo,Xanomeline Low Dose,Xan_Lo,Xanomeline Low Dose,USA,8/25/2012,-13,2,E15,PRURITUS,ITCHING,,PRURITUS,,HLT_0778,,HLGT_0695,,SKIN AND SUBCUTANEOUS TISSUE DISORDERS,,SKIN AND SUBCUTANEOUS TISSUE DISORDERS,,MILD,N,,NONE,NOT RECOVERED/NOT RESOLVED,N,N,N,N,N,N,N,9/5/2012,9/2/2012,9/7/2012,-5,1,Phase 1
CDISCPILOT01,AE,01-701-1111,1111,9/7/2012,9/17/2012,9/7/2012,9/16/2012,,2/22/2013,,,701,81,YEARS,F,WHITE,NOT HISPANIC OR LATINO,Xan_Lo,Xanomeline Low Dose,Xan_Lo,Xanomeline Low Dose,USA,8/25/2012,-13,5,E15,PRURITUS,ITCHING,,PRURITUS,,HLT_0778,,HLGT_0695,,SKIN AND SUBCUTANEOUS TISSUE DISORDERS,,SKIN AND SUBCUTANEOUS TISSUE DISORDERS,,MILD,N,,NONE,RECOVERED/RESOLVED,N,N,N,N,N,N,N,9/17/2012,9/2/2012,9/7/2012,-5,1,Phase 1
CDISCPILOT01,AE,01-701-1115,1115,11/30/2012,1/23/2013,11/30/2012,1/23/2013,,5/20/2013,,,701,84,YEARS,M,WHITE,NOT HISPANIC OR LATINO,Xan_Lo,Xanomeline Low Dose,Xan_Lo,Xanomeline Low Dose,USA,11/23/2012,-7,9,E14,APPLICATION SITE DERMATITIS,APPLICATION SITE RASH,,APPLICATION SITE DERMATITIS,,HLT_0343,,HLGT_0241,,GENERAL DISORDERS AND ADMINISTRATION SITE CONDITIONS,,GENERAL DISORDERS AND ADMINISTRATION SITE CONDITIONS,,MODERATE,N,,PROBABLE,NOT RECOVERED/NOT RESOLVED,N,N,N,N,N,N,N,1/23/2013,1/19/2013,,51,,Phase 1
CDISCPILOT01,AE,01-701-1115,1115,11/30/2012,1/23/2013,11/30/2012,1/23/2013,,5/20/2013,,,701,84,YEARS,M,WHITE,NOT HISPANIC OR LATINO,Xan_Lo,Xanomeline Low Dose,Xan_Lo,Xanomeline Low Dose,USA,11/23/2012,-7,1,E09,APPLICATION SITE ERYTHEMA,APPLICATION SITE REDNESS,,APPLICATION SITE ERYTHEMA,,HLT_0617,,HLGT_0152,,GENERAL DISORDERS AND ADMINISTRATION SITE CONDITIONS,,GENERAL DISORDERS AND ADMINISTRATION SITE CONDITIONS,,MILD,N,,PROBABLE,NOT RECOVERED/NOT RESOLVED,N,N,N,N,N,N,N,12/13/2012,12/2/2012,,3,,Phase 1
CDISCPILOT01,AE,01-701-1115,1115,11/30/2012,1/23/2013,11/30/2012,1/23/2013,,5/20/2013,,,701,84,YEARS,M,WHITE,NOT HISPANIC OR LATINO,Xan_Lo,Xanomeline Low Dose,Xan_Lo,Xanomeline Low Dose,USA,11/23/2012,-7,5,E09,APPLICATION SITE ERYTHEMA,APPLICATION SITE REDNESS,,APPLICATION SITE ERYTHEMA,,HLT_0617,,HLGT_0152,,GENERAL DISORDERS AND ADMINISTRATION SITE CONDITIONS,,GENERAL DISORDERS AND ADMINISTRATION SITE CONDITIONS,,MODERATE,N,,PROBABLE,NOT RECOVERED/NOT RESOLVED,N,N,N,N,N,N,N,1/23/2013,12/2/2012,,3,,Phase 1
CDISCPILOT01,AE,01-701-1115,1115,11/30/2012,1/23/2013,11/30/2012,1/23/2013,,5/20/2013,,,701,84,YEARS,M,WHITE,NOT HISPANIC OR LATINO,Xan_Lo,Xanomeline Low Dose,Xan_Lo,Xanomeline Low Dose,USA,11/23/2012,-7,3,E10,APPLICATION SITE IRRITATION,APPLICATION SITE BURNING,,APPLICATION SITE IRRITATION,,HLT_0061,,HLGT_0346,,GENERAL DISORDERS AND ADMINISTRATION SITE CONDITIONS,,GENERAL DISORDERS AND ADMINISTRATION SITE CONDITIONS,,MILD,N,,POSSIBLE,NOT RECOVERED/NOT RESOLVED,N,N,N,N,N,N,N,12/26/2012,12/26/2012,12/26/2012,27,27,Phase 1
CDISCPILOT01,AE,01-701-1115,1115,11/30/2012,1/23/2013,11/30/2012,1/23/2013,,5/20/2013,,,701,84,YEARS,M,WHITE,NOT HISPANIC OR LATINO,Xan_Lo,Xanomeline Low Dose,Xan_Lo,Xanomeline Low Dose,USA,11/23/2012,-7,4,E10,APPLICATION SITE IRRITATION,APPLICATION SITE BURNING,,APPLICATION SITE IRRITATION,,HLT_0061,,HLGT_0346,,GENERAL DISORDERS AND ADMINISTRATION SITE CONDITIONS,,GENERAL DISORDERS AND ADMINISTRATION SITE CONDITIONS,,MILD,N,,POSSIBLE,RECOVERED/RESOLVED,N,N,N,N,N,N,N,12/28/2012,12/26/2012,12/26/2012,27,27,Phase 1
CDISCPILOT01,AE,01-701-1115,1115,11/30/2012,1/23/2013,11/30/2012,1/23/2013,,5/20/2013,,,701,84,YEARS,M,WHITE,NOT HISPANIC OR LATINO,Xan_Lo,Xanomeline Low Dose,Xan_Lo,Xanomeline Low Dose,USA,11/23/2012,-7,8,E12,APPLICATION SITE IRRITATION,APPLICATION SITE BURNING,,APPLICATION SITE IRRITATION,,HLT_0061,,HLGT_0346,,GENERAL DISORDERS AND ADMINISTRATION SITE CONDITIONS,,GENERAL DISORDERS AND ADMINISTRATION SITE CONDITIONS,,MODERATE,N,,PROBABLE,NOT RECOVERED/NOT RESOLVED,N,N,N,N,N,N,N,1/23/2013,1/19/2013,,51,,Phase 1
CDISCPILOT01,AE,01-701-1115,1115,11/30/2012,1/23/2013,11/30/2012,1/23/2013,,5/20/2013,,,701,84,YEARS,M,WHITE,NOT HISPANIC OR LATINO,Xan_Lo,Xanomeline Low Dose,Xan_Lo,Xanomeline Low Dose,USA,11/23/2012,-7,2,E11,APPLICATION SITE PRURITUS,APPLICATION SITE ITCHING,,APPLICATION SITE PRURITUS,,HLT_0317,,HLGT_0338,,GENERAL DISORDERS AND ADMINISTRATION SITE CONDITIONS,,GENERAL DISORDERS AND ADMINISTRATION SITE CONDITIONS,,MILD,N,,PROBABLE,NOT RECOVERED/NOT RESOLVED,N,N,N,N,N,N,N,12/13/2012,12/2/2012,,3,,Phase 1
CDISCPILOT01,AE,01-701-1115,1115,11/30/2012,1/23/2013,11/30/2012,1/23/2013,,5/20/2013,,,701,84,YEARS,M,WHITE,NOT HISPANIC OR LATINO,Xan_Lo,Xanomeline Low Dose,Xan_Lo,Xanomeline Low Dose,USA,11/23/2012,-7,6,E11,APPLICATION SITE PRURITUS,APPLICATION SITE ITCHING,,APPLICATION SITE PRURITUS,,HLT_0317,,HLGT_0338,,GENERAL DISORDERS AND ADMINISTRATION SITE CONDITIONS,,GENERAL DISORDERS AND ADMINISTRATION SITE CONDITIONS,,MODERATE,N,,PROBABLE,NOT RECOVERED/NOT RESOLVED,N,N,N,N,N,N,N,1/23/2013,12/2/2012,,3,,Phase 1
CDISCPILOT01,AE,01-701-1115,1115,11/30/2012,1/23/2013,11/30/2012,1/23/2013,,5/20/2013,,,701,84,YEARS,M,WHITE,NOT HISPANIC OR LATINO,Xan_Lo,Xanomeline Low Dose,Xan_Lo,Xanomeline Low Dose,USA,11/23/2012,-7,7,E13,FATIGUE,FATIGUE,,FATIGUE,,HLT_0043,,HLGT_0181,,GENERAL DISORDERS AND ADMINISTRATION SITE CONDITIONS,,GENERAL DISORDERS AND ADMINISTRATION SITE CONDITIONS,,MODERATE,N,,REMOTE,NOT RECOVERED/NOT RESOLVED,N,N,N,N,N,N,N,1/23/2013,1/14/2013,,46,,Phase 1
CDISCPILOT01,AE,01-701-1118,1118,3/12/2014,9/9/2014,3/12/2014,9/9/2014,,2014-09-09T13:28,,,701,52,YEARS,M,WHITE,NOT HISPANIC OR LATINO,Pbo,Placebo,Pbo,Placebo,USA,2/27/2014,-13,1,E06,COUGH,COUGH,,COUGH,,HLT_0701,,HLGT_0280,,"RESPIRATORY, THORACIC AND MEDIASTINAL DISORDERS",,"RESPIRATORY, THORACIC AND MEDIASTINAL DISORDERS",,MILD,N,,NONE,NOT RECOVERED/NOT RESOLVED,N,N,N,N,N,N,N,3/10/2014,2003,,,,Phase 1
CDISCPILOT01,AE,01-701-1130,1130,2/15/2014,8/16/2014,2/15/2014,8/16/2014,,2014-08-16T13:10,,,701,84,YEARS,M,WHITE,NOT HISPANIC OR LATINO,Pbo,Placebo,Pbo,Placebo,USA,2/9/2014,-6,5,E09,EYE ALLERGY,EYE ALLERGY,,EYE ALLERGY,,HLT_0256,,HLGT_0071,,EYE DISORDERS,,EYE DISORDERS,,MILD,N,,NONE,RECOVERED/RESOLVED,N,N,N,N,N,N,N,5/16/2014,5/9/2014,5/9/2014,84,84,Phase 1
CDISCPILOT01,AE,01-701-1130,1130,2/15/2014,8/16/2014,2/15/2014,8/16/2014,,2014-08-16T13:10,,,701,84,YEARS,M,WHITE,NOT HISPANIC OR LATINO,Pbo,Placebo,Pbo,Placebo,USA,2/9/2014,-6,6,E10,EYE PRURITUS,EYE ITCHING,,EYE PRURITUS,,HLT_0523,,HLGT_0240,,EYE DISORDERS,,EYE DISORDERS,,MILD,N,,REMOTE,NOT RECOVERED/NOT RESOLVED,N,N,N,N,N,N,N,6/7/2014,5/22/2014,,97,,Phase 1
CDISCPILOT01,AE,01-701-1130,1130,2/15/2014,8/16/2014,2/15/2014,8/16/2014,,2014-08-16T13:10,,,701,84,YEARS,M,WHITE,NOT HISPANIC OR LATINO,Pbo,Placebo,Pbo,Placebo,USA,2/9/2014,-6,4,E08,EYE SWELLING,EYES SWOLLEN,,EYE SWELLING,,HLT_0008,,HLGT_0466,,EYE DISORDERS,,EYE DISORDERS,,MILD,N,,NONE,RECOVERED/RESOLVED,N,N,N,N,N,N,N,5/16/2014,5/9/2014,5/9/2014,84,84,Phase 1
CDISCPILOT01,AE,01-701-1130,1130,2/15/2014,8/16/2014,2/15/2014,8/16/2014,,2014-08-16T13:10,,,701,84,YEARS,M,WHITE,NOT HISPANIC OR LATINO,Pbo,Placebo,Pbo,Placebo,USA,2/9/2014,-6,8,E12,NASAL CONGESTION,NASAL CONGESTION,,NASAL CONGESTION,,HLT_0118,,HLGT_0549,,"RESPIRATORY, THORACIC AND MEDIASTINAL DISORDERS",,"RESPIRATORY, THORACIC AND MEDIASTINAL DISORDERS",,MILD,N,,REMOTE,NOT RECOVERED/NOT RESOLVED,N,N,N,N,N,N,N,6/7/2014,5/22/2014,,97,,Phase 1
CDISCPILOT01,AE,01-701-1130,1130,2/15/2014,8/16/2014,2/15/2014,8/16/2014,,2014-08-16T13:10,,,701,84,YEARS,M,WHITE,NOT HISPANIC OR LATINO,Pbo,Placebo,Pbo,Placebo,USA,2/9/2014,-6,7,E11,PRURITUS,ITCHING BOTH HANDS,,PRURITUS,,HLT_0778,,HLGT_0695,,SKIN AND SUBCUTANEOUS TISSUE DISORDERS,,SKIN AND SUBCUTANEOUS TISSUE DISORDERS,,MILD,N,,REMOTE,NOT RECOVERED/NOT RESOLVED,N,N,N,N,N,N,N,6/7/2014,5/22/2014,,97,,Phase 1
CDISCPILOT01,AE,01-701-1130,1130,2/15/2014,8/16/2014,2/15/2014,8/16/2014,,2014-08-16T13:10,,,701,84,YEARS,M,WHITE,NOT HISPANIC OR LATINO,Pbo,Placebo,Pbo,Placebo,USA,2/9/2014,-6,2,E07,PYREXIA,FEVER,,PYREXIA,,HLT_0310,,HLGT_0652,,GENERAL DISORDERS AND ADMINISTRATION SITE CONDITIONS,,GENERAL DISORDERS AND ADMINISTRATION SITE CONDITIONS,,MILD,N,,NONE,RECOVERED/RESOLVED,N,N,N,N,N,N,N,3/15/2014,3/9/2014,3/9/2014,23,23,Phase 1
CDISCPILOT01,AE,01-701-1130,1130,2/15/2014,8/16/2014,2/15/2014,8/16/2014,,2014-08-16T13:10,,,701,84,YEARS,M,WHITE,NOT HISPANIC OR LATINO,Pbo,Placebo,Pbo,Placebo,USA,2/9/2014,-6,1,E06,URINARY TRACT INFECTION,URINARY TRACT INFECTION,,URINARY TRACT INFECTION,,HLT_0161,,HLGT_0093,,INFECTIONS AND INFESTATIONS,,INFECTIONS AND INFESTATIONS,,MILD,N,,NONE,NOT RECOVERED/NOT RESOLVED,N,N,N,N,N,N,N,3/15/2014,3/9/2014,3/16/2014,23,30,Phase 1
CDISCPILOT01,AE,01-701-1130,1130,2/15/2014,8/16/2014,2/15/2014,8/16/2014,,2014-08-16T13:10,,,701,84,YEARS,M,WHITE,NOT HISPANIC OR LATINO,Pbo,Placebo,Pbo,Placebo,USA,2/9/2014,-6,3,E06,URINARY TRACT INFECTION,URINARY TRACT INFECTION,,URINARY TRACT INFECTION,,HLT_0161,,HLGT_0093,,INFECTIONS AND INFESTATIONS,,INFECTIONS AND INFESTATIONS,,MILD,N,,NONE,RECOVERED/RESOLVED,N,N,N,N,N,N,N,3/17/2014,3/9/2014,3/16/2014,23,30,Phase 1
CDISCPILOT01,AE,01-701-1133,1133,10/28/2012,4/29/2013,10/28/2012,4/28/2013,,2013-04-29T10:13,,,701,81,YEARS,F,WHITE,NOT HISPANIC OR LATINO,Xan_Hi,Xanomeline High Dose,Xan_Hi,Xanomeline High Dose,USA,10/23/2012,-5,1,E04,APPLICATION SITE ERYTHEMA,APPLICATION SITE REDNESS,,APPLICATION SITE ERYTHEMA,,HLT_0617,,HLGT_0152,,GENERAL DISORDERS AND ADMINISTRATION SITE CONDITIONS,,GENERAL DISORDERS AND ADMINISTRATION SITE CONDITIONS,,MILD,N,,PROBABLE,NOT RECOVERED/NOT RESOLVED,N,N,N,N,N,N,N,1/22/2013,12/27/2012,,61,,Phase 1
CDISCPILOT01,AE,01-701-1133,1133,10/28/2012,4/29/2013,10/28/2012,4/28/2013,,2013-04-29T10:13,,,701,81,YEARS,F,WHITE,NOT HISPANIC OR LATINO,Xan_Hi,Xanomeline High Dose,Xan_Hi,Xanomeline High Dose,USA,10/23/2012,-5,3,E04,APPLICATION SITE ERYTHEMA,APPLICATION SITE REDNESS,,APPLICATION SITE ERYTHEMA,,HLT_0617,,HLGT_0152,,GENERAL DISORDERS AND ADMINISTRATION SITE CONDITIONS,,GENERAL DISORDERS AND ADMINISTRATION SITE CONDITIONS,,MODERATE,N,,PROBABLE,NOT RECOVERED/NOT RESOLVED,N,N,N,N,N,N,N,2/18/2013,12/27/2012,,61,,Phase 1
CDISCPILOT01,AE,01-701-1133,1133,10/28/2012,4/29/2013,10/28/2012,4/28/2013,,2013-04-29T10:13,,,701,81,YEARS,F,WHITE,NOT HISPANIC OR LATINO,Xan_Hi,Xanomeline High Dose,Xan_Hi,Xanomeline High Dose,USA,10/23/2012,-5,2,E05,APPLICATION SITE PRURITUS,APPLICATION SITE ITCHING,,APPLICATION SITE PRURITUS,,HLT_0317,,HLGT_0338,,GENERAL DISORDERS AND ADMINISTRATION SITE CONDITIONS,,GENERAL DISORDERS AND ADMINISTRATION SITE CONDITIONS,,MILD,N,,PROBABLE,NOT RECOVERED/NOT RESOLVED,N,N,N,N,N,N,N,1/22/2013,12/27/2012,,61,,Phase 1
CDISCPILOT01,AE,01-701-1133,1133,10/28/2012,4/29/2013,10/28/2012,4/28/2013,,2013-04-29T10:13,,,701,81,YEARS,F,WHITE,NOT HISPANIC OR LATINO,Xan_Hi,Xanomeline High Dose,Xan_Hi,Xanomeline High Dose,USA,10/23/2012,-5,4,E05,APPLICATION SITE PRURITUS,APPLICATION SITE ITCHING,,APPLICATION SITE PRURITUS,,HLT_0317,,HLGT_0338,,GENERAL DISORDERS AND ADMINISTRATION SITE CONDITIONS,,GENERAL DISORDERS AND ADMINISTRATION SITE CONDITIONS,,MODERATE,N,,PROBABLE,NOT RECOVERED/NOT RESOLVED,N,N,N,N,N,N,N,2/18/2013,12/27/2012,,61,,Phase 1
CDISCPILOT01,AE,01-701-1146,1146,5/20/2013,6/30/2013,5/20/2013,6/26/2013,,7/15/2013,,,701,75,YEARS,F,WHITE,NOT HISPANIC OR LATINO,Xan_Hi,Xanomeline High Dose,Xan_Hi,Xanomeline High Dose,USA,5/7/2013,-13,5,E12,APPLICATION SITE ERYTHEMA,APPLICATION SITE ERYTHEMA,,APPLICATION SITE ERYTHEMA,,HLT_0617,,HLGT_0152,,GENERAL DISORDERS AND ADMINISTRATION SITE CONDITIONS,,GENERAL DISORDERS AND ADMINISTRATION SITE CONDITIONS,,MILD,N,,PROBABLE,NOT RECOVERED/NOT RESOLVED,N,N,N,N,N,N,N,6/16/2013,6/10/2013,,22,,Phase 1
CDISCPILOT01,AE,01-701-1146,1146,5/20/2013,6/30/2013,5/20/2013,6/26/2013,,7/15/2013,,,701,75,YEARS,F,WHITE,NOT HISPANIC OR LATINO,Xan_Hi,Xanomeline High Dose,Xan_Hi,Xanomeline High Dose,USA,5/7/2013,-13,7,E12,APPLICATION SITE ERYTHEMA,APPLICATION SITE ERYTHEMA,,APPLICATION SITE ERYTHEMA,,HLT_0617,,HLGT_0152,,GENERAL DISORDERS AND ADMINISTRATION SITE CONDITIONS,,GENERAL DISORDERS AND ADMINISTRATION SITE CONDITIONS,,MODERATE,N,,PROBABLE,NOT RECOVERED/NOT RESOLVED,N,N,N,N,N,N,N,6/30/2013,6/10/2013,,22,,Phase 1
CDISCPILOT01,AE,01-701-1146,1146,5/20/2013,6/30/2013,5/20/2013,6/26/2013,,7/15/2013,,,701,75,YEARS,F,WHITE,NOT HISPANIC OR LATINO,Xan_Hi,Xanomeline High Dose,Xan_Hi,Xanomeline High Dose,USA,5/7/2013,-13,3,E10,APPLICATION SITE IRRITATION,APPLICATION SITE IRRITATION,,APPLICATION SITE IRRITATION,,HLT_0061,,HLGT_0346,,GENERAL DISORDERS AND ADMINISTRATION SITE CONDITIONS,,GENERAL DISORDERS AND ADMINISTRATION SITE CONDITIONS,,MILD,N,,PROBABLE,RECOVERED/RESOLVED,N,N,N,N,N,N,N,6/3/2013,6/1/2013,6/2/2013,13,14,Phase 1
CDISCPILOT01,AE,01-701-1146,1146,5/20/2013,6/30/2013,5/20/2013,6/26/2013,,7/15/2013,,,701,75,YEARS,F,WHITE,NOT HISPANIC OR LATINO,Xan_Hi,Xanomeline High Dose,Xan_Hi,Xanomeline High Dose,USA,5/7/2013,-13,11,E16,APPLICATION SITE IRRITATION,APPLICATION SITE BURNING,,APPLICATION SITE IRRITATION,,HLT_0061,,HLGT_0346,,GENERAL DISORDERS AND ADMINISTRATION SITE CONDITIONS,,GENERAL DISORDERS AND ADMINISTRATION SITE CONDITIONS,,MODERATE,N,,PROBABLE,NOT RECOVERED/NOT RESOLVED,N,N,N,N,N,N,N,6/30/2013,6/26/2013,,38,,Phase 1
CDISCPILOT01,AE,01-701-1146,1146,5/20/2013,6/30/2013,5/20/2013,6/26/2013,,7/15/2013,,,701,75,YEARS,F,WHITE,NOT HISPANIC OR LATINO,Xan_Hi,Xanomeline High Dose,Xan_Hi,Xanomeline High Dose,USA,5/7/2013,-13,9,E14,APPLICATION SITE PAIN,APPLICATION SITE PAIN,,APPLICATION SITE PAIN,,HLT_0342,,HLGT_0085,,GENERAL DISORDERS AND ADMINISTRATION SITE CONDITIONS,,GENERAL DISORDERS AND ADMINISTRATION SITE CONDITIONS,,MODERATE,N,,PROBABLE,NOT RECOVERED/NOT RESOLVED,N,N,N,N,N,N,N,6/30/2013,6/22/2013,,34,,Phase 1
CDISCPILOT01,AE,01-701-1146,1146,5/20/2013,6/30/2013,5/20/2013,6/26/2013,,7/15/2013,,,701,75,YEARS,F,WHITE,NOT HISPANIC OR LATINO,Xan_Hi,Xanomeline High Dose,Xan_Hi,Xanomeline High Dose,USA,5/7/2013,-13,6,E13,APPLICATION SITE PRURITUS,APPLICATION SITE ITCHING,,APPLICATION SITE PRURITUS,,HLT_0317,,HLGT_0338,,GENERAL DISORDERS AND ADMINISTRATION SITE CONDITIONS,,GENERAL DISORDERS AND ADMINISTRATION SITE CONDITIONS,,MILD,N,,PROBABLE,NOT RECOVERED/NOT RESOLVED,N,N,N,N,N,N,N,6/16/2013,6/10/2013,,22,,Phase 1
CDISCPILOT01,AE,01-701-1146,1146,5/20/2013,6/30/2013,5/20/2013,6/26/2013,,7/15/2013,,,701,75,YEARS,F,WHITE,NOT HISPANIC OR LATINO,Xan_Hi,Xanomeline High Dose,Xan_Hi,Xanomeline High Dose,USA,5/7/2013,-13,8,E13,APPLICATION SITE PRURITUS,APPLICATION SITE ITCHING,,APPLICATION SITE PRURITUS,,HLT_0317,,HLGT_0338,,GENERAL DISORDERS AND ADMINISTRATION SITE CONDITIONS,,GENERAL DISORDERS AND ADMINISTRATION SITE CONDITIONS,,MODERATE,N,,PROBABLE,NOT RECOVERED/NOT RESOLVED,N,N,N,N,N,N,N,6/30/2013,6/10/2013,,22,,Phase 1
CDISCPILOT01,AE,01-701-1146,1146,5/20/2013,6/30/2013,5/20/2013,6/26/2013,,7/15/2013,,,701,75,YEARS,F,WHITE,NOT HISPANIC OR LATINO,Xan_Hi,Xanomeline High Dose,Xan_Hi,Xanomeline High Dose,USA,5/7/2013,-13,10,E15,APPLICATION SITE VESICLES,APPLICATION SITE VESICLES,,APPLICATION SITE VESICLES,,HLT_0180,,HLGT_0576,,GENERAL DISORDERS AND ADMINISTRATION SITE CONDITIONS,,GENERAL DISORDERS AND ADMINISTRATION SITE CONDITIONS,,MODERATE,N,,PROBABLE,NOT RECOVERED/NOT RESOLVED,N,N,N,N,N,N,N,6/30/2013,6/26/2013,,38,,Phase 1
CDISCPILOT01,AE,01-701-1146,1146,5/20/2013,6/30/2013,5/20/2013,6/26/2013,,7/15/2013,,,701,75,YEARS,F,WHITE,NOT HISPANIC OR LATINO,Xan_Hi,Xanomeline High Dose,Xan_Hi,Xanomeline High Dose,USA,5/7/2013,-13,4,E11,FATIGUE,FATIGUE,,FATIGUE,,HLT_0043,,HLGT_0181,,GENERAL DISORDERS AND ADMINISTRATION SITE CONDITIONS,,GENERAL DISORDERS AND ADMINISTRATION SITE CONDITIONS,,MILD,N,,POSSIBLE,NOT RECOVERED/NOT RESOLVED,N,N,N,N,N,N,N,6/3/2013,6/3/2013,,15,,Phase 1
CDISCPILOT01,AE,01-701-1146,1146,5/20/2013,6/30/2013,5/20/2013,6/26/2013,,7/15/2013,,,701,75,YEARS,F,WHITE,NOT HISPANIC OR LATINO,Xan_Hi,Xanomeline High Dose,Xan_Hi,Xanomeline High Dose,USA,5/7/2013,-13,1,E09,RASH,RASH,,RASH,,HLT_0762,,HLGT_0198,,SKIN AND SUBCUTANEOUS TISSUE DISORDERS,,SKIN AND SUBCUTANEOUS TISSUE DISORDERS,,MILD,N,,NONE,NOT RECOVERED/NOT RESOLVED,N,N,N,N,N,N,N,5/18/2013,5/16/2013,6/2/2013,-4,14,Phase 1
CDISCPILOT01,AE,01-701-1146,1146,5/20/2013,6/30/2013,5/20/2013,6/26/2013,,7/15/2013,,,701,75,YEARS,F,WHITE,NOT HISPANIC OR LATINO,Xan_Hi,Xanomeline High Dose,Xan_Hi,Xanomeline High Dose,USA,5/7/2013,-13,2,E09,RASH,RASH,,RASH,,HLT_0762,,HLGT_0198,,SKIN AND SUBCUTANEOUS TISSUE DISORDERS,,SKIN AND SUBCUTANEOUS TISSUE DISORDERS,,MILD,N,,NONE,RECOVERED/RESOLVED,N,N,N,N,N,N,N,6/3/2013,5/16/2013,6/2/2013,-4,14,Phase 1
CDISCPILOT01,AE,01-701-1148,1148,8/23/2013,2/20/2014,8/23/2013,2/20/2014,,2014-02-20T15:07,,,701,57,YEARS,M,WHITE,NOT HISPANIC OR LATINO,Xan_Hi,Xanomeline High Dose,Xan_Hi,Xanomeline High Dose,USA,8/14/2013,-9,10,E27,ACTINIC KERATOSIS,ACTINIC KERATOSIS,,ACTINIC KERATOSIS,,HLT_0609,,HLGT_0490,,SKIN AND SUBCUTANEOUS TISSUE DISORDERS,,SKIN AND SUBCUTANEOUS TISSUE DISORDERS,,MILD,N,,NONE,NOT RECOVERED/NOT RESOLVED,N,N,N,N,N,N,N,2/20/2014,2/12/2014,,174,,Phase 2
CDISCPILOT01,AE,01-701-1148,1148,8/23/2013,2/20/2014,8/23/2013,2/20/2014,,2014-02-20T15:07,,,701,57,YEARS,M,WHITE,NOT HISPANIC OR LATINO,Xan_Hi,Xanomeline High Dose,Xan_Hi,Xanomeline High Dose,USA,8/14/2013,-9,1,E20,APPLICATION SITE ERYTHEMA,APPLICATION SITE REDNESS,,APPLICATION SITE ERYTHEMA,,HLT_0617,,HLGT_0152,,GENERAL DISORDERS AND ADMINISTRATION SITE CONDITIONS,,GENERAL DISORDERS AND ADMINISTRATION SITE CONDITIONS,,MILD,N,,PROBABLE,NOT RECOVERED/NOT RESOLVED,N,N,N,N,N,N,N,9/5/2013,8/25/2013,,3,,Phase 1
CDISCPILOT01,AE,01-701-1148,1148,8/23/2013,2/20/2014,8/23/2013,2/20/2014,,2014-02-20T15:07,,,701,57,YEARS,M,WHITE,NOT HISPANIC OR LATINO,Xan_Hi,Xanomeline High Dose,Xan_Hi,Xanomeline High Dose,USA,8/14/2013,-9,2,E21,APPLICATION SITE PRURITUS,APPLICATION SITE ITCHING,,APPLICATION SITE PRURITUS,,HLT_0317,,HLGT_0338,,GENERAL DISORDERS AND ADMINISTRATION SITE CONDITIONS,,GENERAL DISORDERS AND ADMINISTRATION SITE CONDITIONS,,MILD,N,,PROBABLE,NOT RECOVERED/NOT RESOLVED,N,N,N,N,N,N,N,9/5/2013,8/25/2013,,3,,Phase 1
CDISCPILOT01,AE,01-701-1148,1148,8/23/2013,2/20/2014,8/23/2013,2/20/2014,,2014-02-20T15:07,,,701,57,YEARS,M,WHITE,NOT HISPANIC OR LATINO,Xan_Hi,Xanomeline High Dose,Xan_Hi,Xanomeline High Dose,USA,8/14/2013,-9,6,E25,CALCULUS URETHRAL,URETHRAL CALCULUS,,CALCULUS URETHRAL,,HLT_0550,,HLGT_0414,,RENAL AND URINARY DISORDERS,,RENAL AND URINARY DISORDERS,,MODERATE,N,,NONE,RECOVERED/RESOLVED,N,N,N,N,N,N,N,1/10/2014,12/17/2013,12/17/2013,117,117,Phase 2
CDISCPILOT01,AE,01-701-1148,1148,8/23/2013,2/20/2014,8/23/2013,2/20/2014,,2014-02-20T15:07,,,701,57,YEARS,M,WHITE,NOT HISPANIC OR LATINO,Xan_Hi,Xanomeline High Dose,Xan_Hi,Xanomeline High Dose,USA,8/14/2013,-9,9,E26,DEPRESSED MOOD,DEPRESSED MOOD,,DEPRESSED MOOD,,HLT_0784,,HLGT_0122,,PSYCHIATRIC DISORDERS,,PSYCHIATRIC DISORDERS,,MODERATE,N,,NONE,NOT RECOVERED/NOT RESOLVED,N,N,N,N,N,N,N,2/8/2014,7/29/2013,,-25,,Phase 1
CDISCPILOT01,AE,01-701-1148,1148,8/23/2013,2/20/2014,8/23/2013,2/20/2014,,2014-02-20T15:07,,,701,57,YEARS,M,WHITE,NOT HISPANIC OR LATINO,Xan_Hi,Xanomeline High Dose,Xan_Hi,Xanomeline High Dose,USA,8/14/2013,-9,8,E03,DYSPEPSIA,INDIGESTION,,DYSPEPSIA,,HLT_0244,,HLGT_0716,,GASTROINTESTINAL DISORDERS,,GASTROINTESTINAL DISORDERS,,MODERATE,N,,NONE,NOT RECOVERED/NOT RESOLVED,N,N,N,N,N,N,N,2/8/2014,2012-02,,,,Phase 1
CDISCPILOT01,AE,01-701-1148,1148,8/23/2013,2/20/2014,8/23/2013,2/20/2014,,2014-02-20T15:07,,,701,57,YEARS,M,WHITE,NOT HISPANIC OR LATINO,Xan_Hi,Xanomeline High Dose,Xan_Hi,Xanomeline High Dose,USA,8/14/2013,-9,7,E28,EPISTAXIS,NOSE BLEED,,EPISTAXIS,,HLT_0386,,HLGT_0577,,"RESPIRATORY, THORACIC AND MEDIASTINAL DISORDERS",,"RESPIRATORY, THORACIC AND MEDIASTINAL DISORDERS",,MILD,N,,NONE,RECOVERED/RESOLVED,N,N,N,N,N,N,N,1/10/2014,1/3/2014,1/3/2014,134,134,Phase 2
CDISCPILOT01,AE,01-701-1148,1148,8/23/2013,2/20/2014,8/23/2013,2/20/2014,,2014-02-20T15:07,,,701,57,YEARS,M,WHITE,NOT HISPANIC OR LATINO,Xan_Hi,Xanomeline High Dose,Xan_Hi,Xanomeline High Dose,USA,8/14/2013,-9,5,E24,FLANK PAIN,FLANK PAIN,,FLANK PAIN,,HLT_0484,,HLGT_0543,,MUSCULOSKELETAL AND CONNECTIVE TISSUE DISORDERS,,MUSCULOSKELETAL AND CONNECTIVE TISSUE DISORDERS,,MODERATE,N,,NONE,RECOVERED/RESOLVED,N,N,N,N,N,N,N,1/10/2014,12/15/2013,12/17/2013,115,117,Phase 2
CDISCPILOT01,AE,01-701-1148,1148,8/23/2013,2/20/2014,8/23/2013,2/20/2014,,2014-02-20T15:07,,,701,57,YEARS,M,WHITE,NOT HISPANIC OR LATINO,Xan_Hi,Xanomeline High Dose,Xan_Hi,Xanomeline High Dose,USA,8/14/2013,-9,3,E23,LOWER RESPIRATORY TRACT INFECTION,CHEST COLD,,LOWER RESPIRATORY TRACT INFECTION,,HLT_0052,,HLGT_0217,,INFECTIONS AND INFESTATIONS,,INFECTIONS AND INFESTATIONS,,MODERATE,N,,NONE,NOT RECOVERED/NOT RESOLVED,N,N,N,N,N,N,N,10/18/2013,10/12/2013,11/10/2013,51,80,Phase 1
CDISCPILOT01,AE,01-701-1148,1148,8/23/2013,2/20/2014,8/23/2013,2/20/2014,,2014-02-20T15:07,,,701,57,YEARS,M,WHITE,NOT HISPANIC OR LATINO,Xan_Hi,Xanomeline High Dose,Xan_Hi,Xanomeline High Dose,USA,8/14/2013,-9,4,E23,LOWER RESPIRATORY TRACT INFECTION,CHEST COLD,,LOWER RESPIRATORY TRACT INFECTION,,HLT_0052,,HLGT_0217,,INFECTIONS AND INFESTATIONS,,INFECTIONS AND INFESTATIONS,,MODERATE,N,,NONE,RECOVERED/RESOLVED,N,N,N,N,N,N,N,11/17/2013,10/12/2013,11/10/2013,51,80,Phase 1
CDISCPILOT01,AE,01-701-1153,1153,9/23/2013,4/1/2014,9/23/2013,3/16/2014,,2014-04-01T14:25,,,701,79,YEARS,F,WHITE,NOT HISPANIC OR LATINO,Pbo,Placebo,Pbo,Placebo,USA,9/6/2013,-17,1,E06,INCREASED APPETITE,INCREASED APPETITE,,INCREASED APPETITE,,HLT_0566,,HLGT_0769,,METABOLISM AND NUTRITION DISORDERS,,METABOLISM AND NUTRITION DISORDERS,,MILD,N,,POSSIBLE,NOT RECOVERED/NOT RESOLVED,N,N,N,N,N,N,N,10/19/2013,10/13/2013,11/6/2013,21,45,Phase 1
CDISCPILOT01,AE,01-701-1153,1153,9/23/2013,4/1/2014,9/23/2013,3/16/2014,,2014-04-01T14:25,,,701,79,YEARS,F,WHITE,NOT HISPANIC OR LATINO,Pbo,Placebo,Pbo,Placebo,USA,9/6/2013,-17,2,E06,INCREASED APPETITE,INCREASED APPETITE,,INCREASED APPETITE,,HLT_0566,,HLGT_0769,,METABOLISM AND NUTRITION DISORDERS,,METABOLISM AND NUTRITION DISORDERS,,MILD,N,,POSSIBLE,RECOVERED/RESOLVED,N,N,N,N,N,N,N,11/18/2013,10/13/2013,11/6/2013,21,45,Phase 1
CDISCPILOT01,AE,01-701-1180,1180,2/12/2013,3/23/2013,2/12/2013,3/18/2013,,4/7/2013,,,701,56,YEARS,M,WHITE,NOT HISPANIC OR LATINO,Xan_Hi,Xanomeline High Dose,Xan_Hi,Xanomeline High Dose,USA,1/28/2013,-15,9,E07,APPLICATION SITE ERYTHEMA,APPLICATION SITE ERYTHEMA,,APPLICATION SITE ERYTHEMA,,HLT_0617,,HLGT_0152,,GENERAL DISORDERS AND ADMINISTRATION SITE CONDITIONS,,GENERAL DISORDERS AND ADMINISTRATION SITE CONDITIONS,,MODERATE,N,,POSSIBLE,NOT RECOVERED/NOT RESOLVED,N,N,N,N,N,N,N,3/23/2013,3/19/2013,,36,,Phase 1
CDISCPILOT01,AE,01-701-1180,1180,2/12/2013,3/23/2013,2/12/2013,3/18/2013,,4/7/2013,,,701,56,YEARS,M,WHITE,NOT HISPANIC OR LATINO,Xan_Hi,Xanomeline High Dose,Xan_Hi,Xanomeline High Dose,USA,1/28/2013,-15,8,E06,APPLICATION SITE PRURITUS,APPLICATION SITE ITCHING,,APPLICATION SITE PRURITUS,,HLT_0317,,HLGT_0338,,GENERAL DISORDERS AND ADMINISTRATION SITE CONDITIONS,,GENERAL DISORDERS AND ADMINISTRATION SITE CONDITIONS,,MODERATE,N,,POSSIBLE,NOT RECOVERED/NOT RESOLVED,N,N,N,N,N,N,N,3/23/2013,3/19/2013,,36,,Phase 1
CDISCPILOT01,AE,01-701-1180,1180,2/12/2013,3/23/2013,2/12/2013,3/18/2013,,4/7/2013,,,701,56,YEARS,M,WHITE,NOT HISPANIC OR LATINO,Xan_Hi,Xanomeline High Dose,Xan_Hi,Xanomeline High Dose,USA,1/28/2013,-15,7,E05,APPLICATION SITE VESICLES,APPLICATION SITE BLISTER,,APPLICATION SITE VESICLES,,HLT_0180,,HLGT_0576,,GENERAL DISORDERS AND ADMINISTRATION SITE CONDITIONS,,GENERAL DISORDERS AND ADMINISTRATION SITE CONDITIONS,,MODERATE,N,,POSSIBLE,NOT RECOVERED/NOT RESOLVED,N,N,N,N,N,N,N,3/23/2013,3/19/2013,,36,,Phase 1
CDISCPILOT01,AE,01-701-1180,1180,2/12/2013,3/23/2013,2/12/2013,3/18/2013,,4/7/2013,,,701,56,YEARS,M,WHITE,NOT HISPANIC OR LATINO,Xan_Hi,Xanomeline High Dose,Xan_Hi,Xanomeline High Dose,USA,1/28/2013,-15,4,E04,HEADACHE,HEADACHE,,HEADACHE,,HLT_0064,,HLGT_0344,,NERVOUS SYSTEM DISORDERS,,NERVOUS SYSTEM DISORDERS,,MODERATE,N,,NONE,NOT RECOVERED/NOT RESOLVED,N,N,N,N,N,N,N,3/11/2013,2002,,,,Phase 1
CDISCPILOT01,AE,01-701-1180,1180,2/12/2013,3/23/2013,2/12/2013,3/18/2013,,4/7/2013,,,701,56,YEARS,M,WHITE,NOT HISPANIC OR LATINO,Xan_Hi,Xanomeline High Dose,Xan_Hi,Xanomeline High Dose,USA,1/28/2013,-15,3,E02,MICTURITION URGENCY,URINARY URGENCY,,MICTURITION URGENCY,,HLT_0294,,HLGT_0483,,RENAL AND URINARY DISORDERS,,RENAL AND URINARY DISORDERS,,MILD,N,,POSSIBLE,NOT RECOVERED/NOT RESOLVED,N,N,N,N,N,N,N,2/25/2013,2/15/2013,3/19/2013,4,36,Phase 1
CDISCPILOT01,AE,01-701-1180,1180,2/12/2013,3/23/2013,2/12/2013,3/18/2013,,4/7/2013,,,701,56,YEARS,M,WHITE,NOT HISPANIC OR LATINO,Xan_Hi,Xanomeline High Dose,Xan_Hi,Xanomeline High Dose,USA,1/28/2013,-15,6,E02,MICTURITION URGENCY,URINARY URGENCY,,MICTURITION URGENCY,,HLT_0294,,HLGT_0483,,RENAL AND URINARY DISORDERS,,RENAL AND URINARY DISORDERS,,MILD,N,,POSSIBLE,RECOVERED/RESOLVED,N,N,N,N,N,N,N,3/23/2013,2/15/2013,3/19/2013,4,36,Phase 1
CDISCPILOT01,AE,01-701-1180,1180,2/12/2013,3/23/2013,2/12/2013,3/18/2013,,4/7/2013,,,701,56,YEARS,M,WHITE,NOT HISPANIC OR LATINO,Xan_Hi,Xanomeline High Dose,Xan_Hi,Xanomeline High Dose,USA,1/28/2013,-15,5,E03,NASOPHARYNGITIS,COLD,,NASOPHARYNGITIS,,HLT_0036,,HLGT_0709,,INFECTIONS AND INFESTATIONS,,INFECTIONS AND INFESTATIONS,,MILD,N,,NONE,RECOVERED/RESOLVED,N,N,N,N,N,N,N,3/11/2013,3/6/2013,3/7/2013,23,24,Phase 1
CDISCPILOT01,AE,01-701-1180,1180,2/12/2013,3/23/2013,2/12/2013,3/18/2013,,4/7/2013,,,701,56,YEARS,M,WHITE,NOT HISPANIC OR LATINO,Xan_Hi,Xanomeline High Dose,Xan_Hi,Xanomeline High Dose,USA,1/28/2013,-15,1,E01,VOMITING,VOMITING,,VOMITING,,HLT_0016,,HLGT_0350,,GASTROINTESTINAL DISORDERS,,GASTROINTESTINAL DISORDERS,,MILD,N,,NONE,NOT RECOVERED/NOT RESOLVED,N,N,N,N,N,N,N,2/12/2013,2/12/2013,2/12/2013,1,1,Phase 1
CDISCPILOT01,AE,01-701-1180,1180,2/12/2013,3/23/2013,2/12/2013,3/18/2013,,4/7/2013,,,701,56,YEARS,M,WHITE,NOT HISPANIC OR LATINO,Xan_Hi,Xanomeline High Dose,Xan_Hi,Xanomeline High Dose,USA,1/28/2013,-15,2,E01,VOMITING,VOMITING,,VOMITING,,HLT_0016,,HLGT_0350,,GASTROINTESTINAL DISORDERS,,GASTROINTESTINAL DISORDERS,,MILD,N,,NONE,RECOVERED/RESOLVED,N,N,N,N,N,N,N,2/25/2013,2/12/2013,2/12/2013,1,1,Phase 1
CDISCPILOT01,AE,01-701-1181,1181,12/5/2013,12/12/2013,12/5/2013,12/9/2013,,5/23/2014,,,701,79,YEARS,F,WHITE,NOT HISPANIC OR LATINO,Xan_Hi,Xanomeline High Dose,Xan_Lo,Xanomeline Low Dose,USA,11/26/2013,-9,1,E16,AGITATION,AGITATION,,AGITATION,,HLT_0140,,HLGT_0170,,PSYCHIATRIC DISORDERS,,PSYCHIATRIC DISORDERS,,MODERATE,N,,NONE,RECOVERED/RESOLVED,N,N,N,N,N,N,N,12/12/2013,12/9/2013,12/9/2013,5,5,Phase 1
CDISCPILOT01,AE,01-701-1188,1188,2/15/2013,3/25/2013,2/15/2013,3/24/2013,,8/4/2013,,,701,71,YEARS,M,WHITE,NOT HISPANIC OR LATINO,Xan_Lo,Xanomeline Low Dose,Xan_Lo,Xanomeline Low Dose,USA,2/3/2013,-12,7,E09,APPLICATION SITE URTICARIA,APPLICATION SITE URTICARIA,,APPLICATION SITE URTICARIA,,HLT_0196,,HLGT_0233,,GENERAL DISORDERS AND ADMINISTRATION SITE CONDITIONS,,GENERAL DISORDERS AND ADMINISTRATION SITE CONDITIONS,,MILD,N,,PROBABLE,NOT RECOVERED/NOT RESOLVED,N,N,N,N,N,N,N,3/25/2013,3/21/2013,,35,,Phase 1
CDISCPILOT01,AE,01-701-1188,1188,2/15/2013,3/25/2013,2/15/2013,3/24/2013,,8/4/2013,,,701,71,YEARS,M,WHITE,NOT HISPANIC OR LATINO,Xan_Lo,Xanomeline Low Dose,Xan_Lo,Xanomeline Low Dose,USA,2/3/2013,-12,1,E04,ERYTHEMA,ERYTHEMA,,ERYTHEMA,,HLT_0284,,HLGT_0192,,SKIN AND SUBCUTANEOUS TISSUE DISORDERS,,SKIN AND SUBCUTANEOUS TISSUE DISORDERS,,MILD,N,,PROBABLE,NOT RECOVERED/NOT RESOLVED,N,N,N,N,N,N,N,3/2/2013,2/16/2013,,2,,Phase 1
CDISCPILOT01,AE,01-701-1188,1188,2/15/2013,3/25/2013,2/15/2013,3/24/2013,,8/4/2013,,,701,71,YEARS,M,WHITE,NOT HISPANIC OR LATINO,Xan_Lo,Xanomeline Low Dose,Xan_Lo,Xanomeline Low Dose,USA,2/3/2013,-12,3,E04,ERYTHEMA,ERYTHEMA,,ERYTHEMA,,HLT_0284,,HLGT_0192,,SKIN AND SUBCUTANEOUS TISSUE DISORDERS,,SKIN AND SUBCUTANEOUS TISSUE DISORDERS,,MODERATE,N,,PROBABLE,NOT RECOVERED/NOT RESOLVED,N,N,N,N,N,N,N,3/16/2013,2/16/2013,,2,,Phase 1
CDISCPILOT01,AE,01-701-1188,1188,2/15/2013,3/25/2013,2/15/2013,3/24/2013,,8/4/2013,,,701,71,YEARS,M,WHITE,NOT HISPANIC OR LATINO,Xan_Lo,Xanomeline Low Dose,Xan_Lo,Xanomeline Low Dose,USA,2/3/2013,-12,2,E05,PRURITUS,ITCHING,,PRURITUS,,HLT_0778,,HLGT_0695,,SKIN AND SUBCUTANEOUS TISSUE DISORDERS,,SKIN AND SUBCUTANEOUS TISSUE DISORDERS,,MILD,N,,PROBABLE,NOT RECOVERED/NOT RESOLVED,N,N,N,N,N,N,N,3/2/2013,2/16/2013,,2,,Phase 1
CDISCPILOT01,AE,01-701-1188,1188,2/15/2013,3/25/2013,2/15/2013,3/24/2013,,8/4/2013,,,701,71,YEARS,M,WHITE,NOT HISPANIC OR LATINO,Xan_Lo,Xanomeline Low Dose,Xan_Lo,Xanomeline Low Dose,USA,2/3/2013,-12,4,E05,PRURITUS,ITCHING,,PRURITUS,,HLT_0778,,HLGT_0695,,SKIN AND SUBCUTANEOUS TISSUE DISORDERS,,SKIN AND SUBCUTANEOUS TISSUE DISORDERS,,MODERATE,N,,PROBABLE,NOT RECOVERED/NOT RESOLVED,N,N,N,N,N,N,N,3/16/2013,2/16/2013,,2,,Phase 1
CDISCPILOT01,AE,01-701-1188,1188,2/15/2013,3/25/2013,2/15/2013,3/24/2013,,8/4/2013,,,701,71,YEARS,M,WHITE,NOT HISPANIC OR LATINO,Xan_Lo,Xanomeline Low Dose,Xan_Lo,Xanomeline Low Dose,USA,2/3/2013,-12,5,E06,URTICARIA,WELTS,,URTICARIA,,HLT_0420,,HLGT_0705,,SKIN AND SUBCUTANEOUS TISSUE DISORDERS,,SKIN AND SUBCUTANEOUS TISSUE DISORDERS,,MILD,N,,PROBABLE,NOT RECOVERED/NOT RESOLVED,N,N,N,N,N,N,N,3/16/2013,3/4/2013,,18,,Phase 1
CDISCPILOT01,AE,01-701-1188,1188,2/15/2013,3/25/2013,2/15/2013,3/24/2013,,8/4/2013,,,701,71,YEARS,M,WHITE,NOT HISPANIC OR LATINO,Xan_Lo,Xanomeline Low Dose,Xan_Lo,Xanomeline Low Dose,USA,2/3/2013,-12,6,E06,URTICARIA,WELTS,,URTICARIA,,HLT_0420,,HLGT_0705,,SKIN AND SUBCUTANEOUS TISSUE DISORDERS,,SKIN AND SUBCUTANEOUS TISSUE DISORDERS,,MODERATE,N,,PROBABLE,NOT RECOVERED/NOT RESOLVED,N,N,N,N,N,N,N,3/25/2013,3/4/2013,,18,,Phase 1
CDISCPILOT01,AE,01-701-1188,1188,2/15/2013,3/25/2013,2/15/2013,3/24/2013,,8/4/2013,,,701,71,YEARS,M,WHITE,NOT HISPANIC OR LATINO,Xan_Lo,Xanomeline Low Dose,Xan_Lo,Xanomeline Low Dose,USA,2/3/2013,-12,8,E10,URTICARIA,WELTS,,URTICARIA,,HLT_0420,,HLGT_0705,,SKIN AND SUBCUTANEOUS TISSUE DISORDERS,,SKIN AND SUBCUTANEOUS TISSUE DISORDERS,,MILD,N,,PROBABLE,NOT RECOVERED/NOT RESOLVED,N,N,N,N,N,N,N,3/25/2013,3/21/2013,,35,,Phase 1
CDISCPILOT01,AE,01-701-1192,1192,7/22/2012,1/20/2013,7/22/2012,1/20/2013,,2013-01-20T15:47,,,701,80,YEARS,F,WHITE,NOT HISPANIC OR LATINO,Xan_Lo,Xanomeline Low Dose,Xan_Lo,Xanomeline Low Dose,USA,7/8/2012,-14,13,E13,APPLICATION SITE ERYTHEMA,APPLICATION SITE REDNESS,,APPLICATION SITE ERYTHEMA,,HLT_0617,,HLGT_0152,,GENERAL DISORDERS AND ADMINISTRATION SITE CONDITIONS,,GENERAL DISORDERS AND ADMINISTRATION SITE CONDITIONS,,MILD,N,,PROBABLE,NOT RECOVERED/NOT RESOLVED,N,N,N,N,N,N,N,12/13/2012,12/5/2012,,137,,Phase 2
CDISCPILOT01,AE,01-701-1192,1192,7/22/2012,1/20/2013,7/22/2012,1/20/2013,,2013-01-20T15:47,,,701,80,YEARS,F,WHITE,NOT HISPANIC OR LATINO,Xan_Lo,Xanomeline Low Dose,Xan_Lo,Xanomeline Low Dose,USA,7/8/2012,-14,12,E12,APPLICATION SITE IRRITATION,APPLICATION SITE BURNING,,APPLICATION SITE IRRITATION,,HLT_0061,,HLGT_0346,,GENERAL DISORDERS AND ADMINISTRATION SITE CONDITIONS,,GENERAL DISORDERS AND ADMINISTRATION SITE CONDITIONS,,MILD,N,,PROBABLE,NOT RECOVERED/NOT RESOLVED,N,N,N,N,N,N,N,12/13/2012,12/5/2012,12/16/2012,137,148,Phase 2
CDISCPILOT01,AE,01-701-1192,1192,7/22/2012,1/20/2013,7/22/2012,1/20/2013,,2013-01-20T15:47,,,701,80,YEARS,F,WHITE,NOT HISPANIC OR LATINO,Xan_Lo,Xanomeline Low Dose,Xan_Lo,Xanomeline Low Dose,USA,7/8/2012,-14,15,E12,APPLICATION SITE IRRITATION,APPLICATION SITE BURNING,,APPLICATION SITE IRRITATION,,HLT_0061,,HLGT_0346,,GENERAL DISORDERS AND ADMINISTRATION SITE CONDITIONS,,GENERAL DISORDERS AND ADMINISTRATION SITE CONDITIONS,,MILD,N,,PROBABLE,RECOVERED/RESOLVED,N,N,N,N,N,N,N,1/11/2013,12/5/2012,12/16/2012,137,148,Phase 2
CDISCPILOT01,AE,01-701-1192,1192,7/22/2012,1/20/2013,7/22/2012,1/20/2013,,2013-01-20T15:47,,,701,80,YEARS,F,WHITE,NOT HISPANIC OR LATINO,Xan_Lo,Xanomeline Low Dose,Xan_Lo,Xanomeline Low Dose,USA,7/8/2012,-14,14,E14,APPLICATION SITE PRURITUS,APPLICATION SITE ITCHING,,APPLICATION SITE PRURITUS,,HLT_0317,,HLGT_0338,,GENERAL DISORDERS AND ADMINISTRATION SITE CONDITIONS,,GENERAL DISORDERS AND ADMINISTRATION SITE CONDITIONS,,MILD,N,,PROBABLE,NOT RECOVERED/NOT RESOLVED,N,N,N,N,N,N,N,12/13/2012,12/5/2012,,137,,Phase 2
CDISCPILOT01,AE,01-701-1192,1192,7/22/2012,1/20/2013,7/22/2012,1/20/2013,,2013-01-20T15:47,,,701,80,YEARS,F,WHITE,NOT HISPANIC OR LATINO,Xan_Lo,Xanomeline Low Dose,Xan_Lo,Xanomeline Low Dose,USA,7/8/2012,-14,4,E01,COUGH,COUGH,,COUGH,,HLT_0701,,HLGT_0280,,"RESPIRATORY, THORACIC AND MEDIASTINAL DISORDERS",,"RESPIRATORY, THORACIC AND MEDIASTINAL DISORDERS",,MODERATE,N,,NONE,NOT RECOVERED/NOT RESOLVED,N,N,N,N,N,N,N,9/23/2012,2010-06,,,,Phase 1
CDISCPILOT01,AE,01-701-1192,1192,7/22/2012,1/20/2013,7/22/2012,1/20/2013,,2013-01-20T15:47,,,701,80,YEARS,F,WHITE,NOT HISPANIC OR LATINO,Xan_Lo,Xanomeline Low Dose,Xan_Lo,Xanomeline Low Dose,USA,7/8/2012,-14,9,E01,COUGH,COUGH,,COUGH,,HLT_0701,,HLGT_0280,,"RESPIRATORY, THORACIC AND MEDIASTINAL DISORDERS",,"RESPIRATORY, THORACIC AND MEDIASTINAL DISORDERS",,MILD,N,,NONE,NOT RECOVERED/NOT RESOLVED,N,N,N,N,N,N,N,10/14/2012,2010-06,,,,Phase 1
CDISCPILOT01,AE,01-701-1192,1192,7/22/2012,1/20/2013,7/22/2012,1/20/2013,,2013-01-20T15:47,,,701,80,YEARS,F,WHITE,NOT HISPANIC OR LATINO,Xan_Lo,Xanomeline Low Dose,Xan_Lo,Xanomeline Low Dose,USA,7/8/2012,-14,3,E09,ERYTHEMA,ERYTHEMA FACIAL,,ERYTHEMA,,HLT_0284,,HLGT_0192,,SKIN AND SUBCUTANEOUS TISSUE DISORDERS,,SKIN AND SUBCUTANEOUS TISSUE DISORDERS,,MILD,N,,NONE,NOT RECOVERED/NOT RESOLVED,N,N,N,N,N,N,N,8/7/2012,8/7/2012,9/14/2012,17,55,Phase 1
CDISCPILOT01,AE,01-701-1192,1192,7/22/2012,1/20/2013,7/22/2012,1/20/2013,,2013-01-20T15:47,,,701,80,YEARS,F,WHITE,NOT HISPANIC OR LATINO,Xan_Lo,Xanomeline Low Dose,Xan_Lo,Xanomeline Low Dose,USA,7/8/2012,-14,6,E09,ERYTHEMA,ERYTHEMA FACIAL,,ERYTHEMA,,HLT_0284,,HLGT_0192,,SKIN AND SUBCUTANEOUS TISSUE DISORDERS,,SKIN AND SUBCUTANEOUS TISSUE DISORDERS,,MILD,N,,NONE,RECOVERED/RESOLVED,N,N,N,N,N,N,N,9/23/2012,8/7/2012,9/14/2012,17,55,Phase 1
CDISCPILOT01,AE,01-701-1192,1192,7/22/2012,1/20/2013,7/22/2012,1/20/2013,,2013-01-20T15:47,,,701,80,YEARS,F,WHITE,NOT HISPANIC OR LATINO,Xan_Lo,Xanomeline Low Dose,Xan_Lo,Xanomeline Low Dose,USA,7/8/2012,-14,8,E11,MUSCULAR WEAKNESS,MUSCULAR WEAKNESS,,MUSCULAR WEAKNESS,,HLT_0444,,HLGT_0211,,MUSCULOSKELETAL AND CONNECTIVE TISSUE DISORDERS,,MUSCULOSKELETAL AND CONNECTIVE TISSUE DISORDERS,,MODERATE,N,,NONE,NOT RECOVERED/NOT RESOLVED,N,N,N,N,N,N,N,9/23/2012,9/7/2012,9/30/2012,48,71,Phase 1
CDISCPILOT01,AE,01-701-1192,1192,7/22/2012,1/20/2013,7/22/2012,1/20/2013,,2013-01-20T15:47,,,701,80,YEARS,F,WHITE,NOT HISPANIC OR LATINO,Xan_Lo,Xanomeline Low Dose,Xan_Lo,Xanomeline Low Dose,USA,7/8/2012,-14,11,E11,MUSCULAR WEAKNESS,MUSCULAR WEAKNESS,,MUSCULAR WEAKNESS,,HLT_0444,,HLGT_0211,,MUSCULOSKELETAL AND CONNECTIVE TISSUE DISORDERS,,MUSCULOSKELETAL AND CONNECTIVE TISSUE DISORDERS,,MODERATE,N,,NONE,RECOVERED/RESOLVED,N,N,N,N,N,N,N,10/14/2012,9/7/2012,9/30/2012,48,71,Phase 1
CDISCPILOT01,AE,01-701-1192,1192,7/22/2012,1/20/2013,7/22/2012,1/20/2013,,2013-01-20T15:47,,,701,80,YEARS,F,WHITE,NOT HISPANIC OR LATINO,Xan_Lo,Xanomeline Low Dose,Xan_Lo,Xanomeline Low Dose,USA,7/8/2012,-14,1,E06,NASAL MUCOSA BIOPSY,NASAL MUCOSA BIOPSY,,NASAL MUCOSA BIOPSY,,HLT_0680,,HLGT_0396,,INVESTIGATIONS,,INVESTIGATIONS,,MILD,N,,NONE,RECOVERED/RESOLVED,N,N,N,N,N,N,N,8/7/2012,8/3/2012,8/3/2012,13,13,Phase 1
CDISCPILOT01,AE,01-701-1192,1192,7/22/2012,1/20/2013,7/22/2012,1/20/2013,,2013-01-20T15:47,,,701,80,YEARS,F,WHITE,NOT HISPANIC OR LATINO,Xan_Lo,Xanomeline Low Dose,Xan_Lo,Xanomeline Low Dose,USA,7/8/2012,-14,7,E10,PNEUMONIA,PNEUMONIA,,PNEUMONIA,,HLT_0251,,HLGT_0671,,INFECTIONS AND INFESTATIONS,,INFECTIONS AND INFESTATIONS,,MODERATE,N,,NONE,NOT RECOVERED/NOT RESOLVED,N,N,N,N,Y,N,N,9/23/2012,9/7/2012,10/6/2012,48,77,Phase 1
CDISCPILOT01,AE,01-701-1192,1192,7/22/2012,1/20/2013,7/22/2012,1/20/2013,,2013-01-20T15:47,,,701,80,YEARS,F,WHITE,NOT HISPANIC OR LATINO,Xan_Lo,Xanomeline Low Dose,Xan_Lo,Xanomeline Low Dose,USA,7/8/2012,-14,10,E10,PNEUMONIA,PNEUMONIA,,PNEUMONIA,,HLT_0251,,HLGT_0671,,INFECTIONS AND INFESTATIONS,,INFECTIONS AND INFESTATIONS,,MODERATE,N,,NONE,RECOVERED/RESOLVED,N,N,N,N,Y,N,N,10/14/2012,9/7/2012,10/6/2012,48,77,Phase 1
CDISCPILOT01,AE,01-701-1192,1192,7/22/2012,1/20/2013,7/22/2012,1/20/2013,,2013-01-20T15:47,,,701,80,YEARS,F,WHITE,NOT HISPANIC OR LATINO,Xan_Lo,Xanomeline Low Dose,Xan_Lo,Xanomeline Low Dose,USA,7/8/2012,-14,2,E08,SECRETION DISCHARGE,SECRETION DISCHARGE,,SECRETION DISCHARGE,,HLT_0683,,HLGT_0575,,GENERAL DISORDERS AND ADMINISTRATION SITE CONDITIONS,,GENERAL DISORDERS AND ADMINISTRATION SITE CONDITIONS,,MILD,N,,NONE,NOT RECOVERED/NOT RESOLVED,N,N,N,N,N,N,N,8/7/2012,8/7/2012,9/14/2012,17,55,Phase 1
CDISCPILOT01,AE,01-701-1192,1192,7/22/2012,1/20/2013,7/22/2012,1/20/2013,,2013-01-20T15:47,,,701,80,YEARS,F,WHITE,NOT HISPANIC OR LATINO,Xan_Lo,Xanomeline Low Dose,Xan_Lo,Xanomeline Low Dose,USA,7/8/2012,-14,5,E08,SECRETION DISCHARGE,SECRETION DISCHARGE,,SECRETION DISCHARGE,,HLT_0683,,HLGT_0575,,GENERAL DISORDERS AND ADMINISTRATION SITE CONDITIONS,,GENERAL DISORDERS AND ADMINISTRATION SITE CONDITIONS,,MILD,N,,NONE,RECOVERED/RESOLVED,N,N,N,N,N,N,N,9/23/2012,8/7/2012,9/14/2012,17,55,Phase 1
CDISCPILOT01,AE,01-701-1203,1203,2/2/2013,8/3/2013,2/2/2013,8/3/2013,,2013-08-03T10:10,,,701,81,YEARS,F,BLACK OR AFRICAN AMERICAN,NOT HISPANIC OR LATINO,Pbo,Placebo,Pbo,Placebo,USA,1/25/2013,-8,1,E05,EYE LASER SURGERY,EYE LASER SURGERY,,EYE LASER SURGERY,,HLT_0355,,HLGT_0189,,SURGICAL AND MEDICAL PROCEDURES,,SURGICAL AND MEDICAL PROCEDURES,,MILD,N,,NONE,RECOVERED/RESOLVED,N,N,N,N,N,N,N,3/30/2013,3/21/2013,3/21/2013,48,48,Phase 1
CDISCPILOT01,AE,01-701-1211,1211,11/15/2012,1/14/2013,11/15/2012,1/12/2013,,1/14/2013,20,Y,701,76,YEARS,F,WHITE,NOT HISPANIC OR LATINO,Xan_Lo,Xanomeline Low Dose,Xan_Lo,Xanomeline Low Dose,USA,10/30/2012,-16,5,E05,APPLICATION SITE ERYTHEMA,APPLICATION SITE REDNESS,,APPLICATION SITE ERYTHEMA,,HLT_0617,,HLGT_0152,,GENERAL DISORDERS AND ADMINISTRATION SITE CONDITIONS,,GENERAL DISORDERS AND ADMINISTRATION SITE CONDITIONS,,MILD,N,,POSSIBLE,NOT RECOVERED/NOT RESOLVED,N,N,N,N,N,N,N,12/11/2012,11/29/2012,,15,,Phase 1
CDISCPILOT01,AE,01-701-1211,1211,11/15/2012,1/14/2013,11/15/2012,1/12/2013,,1/14/2013,20,Y,701,76,YEARS,F,WHITE,NOT HISPANIC OR LATINO,Xan_Lo,Xanomeline Low Dose,Xan_Lo,Xanomeline Low Dose,USA,10/30/2012,-16,1,E08,APPLICATION SITE PRURITUS,APPLICATION SITE ITCHING,,APPLICATION SITE PRURITUS,,HLT_0317,,HLGT_0338,,GENERAL DISORDERS AND ADMINISTRATION SITE CONDITIONS,,GENERAL DISORDERS AND ADMINISTRATION SITE CONDITIONS,,MILD,N,,POSSIBLE,NOT RECOVERED/NOT RESOLVED,N,N,N,N,N,N,N,11/28/2012,11/16/2012,,2,,Phase 1
CDISCPILOT01,AE,01-701-1211,1211,11/15/2012,1/14/2013,11/15/2012,1/12/2013,,1/14/2013,20,Y,701,76,YEARS,F,WHITE,NOT HISPANIC OR LATINO,Xan_Lo,Xanomeline Low Dose,Xan_Lo,Xanomeline Low Dose,USA,10/30/2012,-16,7,E12,CONFUSIONAL STATE,CONFUSION,,CONFUSIONAL STATE,,HLT_0642,,HLGT_0329,,PSYCHIATRIC DISORDERS,,PSYCHIATRIC DISORDERS,,MODERATE,N,,NONE,NOT RECOVERED/NOT RESOLVED,N,N,N,N,N,N,N,1/14/2013,1/11/2013,,58,,Phase 1
CDISCPILOT01,AE,01-701-1211,1211,11/15/2012,1/14/2013,11/15/2012,1/12/2013,,1/14/2013,20,Y,701,76,YEARS,F,WHITE,NOT HISPANIC OR LATINO,Xan_Lo,Xanomeline Low Dose,Xan_Lo,Xanomeline Low Dose,USA,10/30/2012,-16,8,E13,DYSPNOEA,SHORTNESS OF BREATH,,DYSPNOEA,,HLT_0296,,HLGT_0255,,"RESPIRATORY, THORACIC AND MEDIASTINAL DISORDERS",,"RESPIRATORY, THORACIC AND MEDIASTINAL DISORDERS",,MODERATE,N,,NONE,NOT RECOVERED/NOT RESOLVED,N,N,N,N,N,N,N,1/14/2013,1/11/2013,,58,,Phase 1
CDISCPILOT01,AE,01-701-1211,1211,11/15/2012,1/14/2013,11/15/2012,1/12/2013,,1/14/2013,20,Y,701,76,YEARS,F,WHITE,NOT HISPANIC OR LATINO,Xan_Lo,Xanomeline Low Dose,Xan_Lo,Xanomeline Low Dose,USA,10/30/2012,-16,4,E09,INCONTINENCE,INCONTINENCE,,INCONTINENCE,,HLT_0560,,HLGT_0503,,RENAL AND URINARY DISORDERS,,RENAL AND URINARY DISORDERS,,MILD,N,,NONE,NOT RECOVERED/NOT RESOLVED,N,N,N,N,N,N,N,11/28/2012,11/22/2012,,8,,Phase 1
CDISCPILOT01,AE,01-701-1211,1211,11/15/2012,1/14/2013,11/15/2012,1/12/2013,,1/14/2013,20,Y,701,76,YEARS,F,WHITE,NOT HISPANIC OR LATINO,Xan_Lo,Xanomeline Low Dose,Xan_Lo,Xanomeline Low Dose,USA,10/30/2012,-16,2,E03,JOINT DISLOCATION,SHOULDER DISLOCATION,,JOINT DISLOCATION,,HLT_0035,,HLGT_0227,,"INJURY, POISONING AND PROCEDURAL COMPLICATIONS",,"INJURY, POISONING AND PROCEDURAL COMPLICATIONS",,MODERATE,N,,NONE,RECOVERED/RESOLVED,N,N,N,N,N,N,N,11/28/2012,11/21/2012,11/21/2012,7,7,Phase 1
CDISCPILOT01,AE,01-701-1211,1211,11/15/2012,1/14/2013,11/15/2012,1/12/2013,,1/14/2013,20,Y,701,76,YEARS,F,WHITE,NOT HISPANIC OR LATINO,Xan_Lo,Xanomeline Low Dose,Xan_Lo,Xanomeline Low Dose,USA,10/30/2012,-16,3,E04,SHOULDER PAIN,SHOULDER PAIN,,SHOULDER PAIN,,HLT_0527,,HLGT_0288,,MUSCULOSKELETAL AND CONNECTIVE TISSUE DISORDERS,,MUSCULOSKELETAL AND CONNECTIVE TISSUE DISORDERS,,MILD,N,,NONE,NOT RECOVERED/NOT RESOLVED,N,N,N,N,N,N,N,11/28/2012,11/21/2012,,7,,Phase 1
CDISCPILOT01,AE,01-701-1211,1211,11/15/2012,1/14/2013,11/15/2012,1/12/2013,,1/14/2013,20,Y,701,76,YEARS,F,WHITE,NOT HISPANIC OR LATINO,Xan_Lo,Xanomeline Low Dose,Xan_Lo,Xanomeline Low Dose,USA,10/30/2012,-16,6,E06,SKIN LACERATION,LACERATION OF FACE,,SKIN LACERATION,,HLT_0075,,HLGT_0118,,"INJURY, POISONING AND PROCEDURAL COMPLICATIONS",,"INJURY, POISONING AND PROCEDURAL COMPLICATIONS",,MILD,N,,NONE,NOT RECOVERED/NOT RESOLVED,N,N,N,N,N,N,N,12/11/2012,12/9/2012,,25,,Phase 1
CDISCPILOT01,AE,01-701-1211,1211,11/15/2012,1/14/2013,11/15/2012,1/12/2013,,1/14/2013,20,Y,701,76,YEARS,F,WHITE,NOT HISPANIC OR LATINO,Xan_Lo,Xanomeline Low Dose,Xan_Lo,Xanomeline Low Dose,USA,10/30/2012,-16,9,E11,SUDDEN DEATH,SUDDEN DEATH,,SUDDEN DEATH,,HLT_0142,,HLGT_0272,,GENERAL DISORDERS AND ADMINISTRATION SITE CONDITIONS,,GENERAL DISORDERS AND ADMINISTRATION SITE CONDITIONS,,SEVERE,N,,NONE,FATAL,N,N,N,Y,N,Y,N,1/14/2013,1/14/2013,1/14/2013,61,61,Phase 1
CDISCPILOT01,DM,01-701-1234,1234,3/30/2013,9/22/2013,3/30/2013,9/22/2013,,2013-09-22T09:25,,,701,69,YEARS,M,WHITE,NOT HISPANIC OR LATINO,Pbo,Placebo,Pbo,Placebo,USA,3/20/2013,-10,,,,,,,,,,,,,,,,,,,,,,,,,,,,,,,,,Phase 1
CDISCPILOT01,AE,01-701-1239,1239,1/11/2014,7/11/2014,1/11/2014,7/10/2014,,2014-07-11T15:40,,,701,56,YEARS,M,WHITE,HISPANIC OR LATINO,Xan_Hi,Xanomeline High Dose,Xan_Hi,Xanomeline High Dose,USA,12/28/2013,-14,4,E13,APPLICATION SITE IRRITATION,APPLICATION SITE IRRITATION,,APPLICATION SITE IRRITATION,,HLT_0061,,HLGT_0346,,GENERAL DISORDERS AND ADMINISTRATION SITE CONDITIONS,,GENERAL DISORDERS AND ADMINISTRATION SITE CONDITIONS,,MILD,N,,PROBABLE,NOT RECOVERED/NOT RESOLVED,N,N,N,N,N,N,N,1/25/2014,1/20/2014,2/8/2014,10,29,Phase 1
CDISCPILOT01,AE,01-701-1239,1239,1/11/2014,7/11/2014,1/11/2014,7/10/2014,,2014-07-11T15:40,,,701,56,YEARS,M,WHITE,HISPANIC OR LATINO,Xan_Hi,Xanomeline High Dose,Xan_Hi,Xanomeline High Dose,USA,12/28/2013,-14,5,E13,APPLICATION SITE IRRITATION,APPLICATION SITE IRRITATION,,APPLICATION SITE IRRITATION,,HLT_0061,,HLGT_0346,,GENERAL DISORDERS AND ADMINISTRATION SITE CONDITIONS,,GENERAL DISORDERS AND ADMINISTRATION SITE CONDITIONS,,MILD,N,,PROBABLE,RECOVERED/RESOLVED,N,N,N,N,N,N,N,2/10/2014,1/20/2014,2/8/2014,10,29,Phase 1
CDISCPILOT01,AE,01-701-1239,1239,1/11/2014,7/11/2014,1/11/2014,7/10/2014,,2014-07-11T15:40,,,701,56,YEARS,M,WHITE,HISPANIC OR LATINO,Xan_Hi,Xanomeline High Dose,Xan_Hi,Xanomeline High Dose,USA,12/28/2013,-14,1,E11,ERYTHEMA,ERYTHEMA,,ERYTHEMA,,HLT_0284,,HLGT_0192,,SKIN AND SUBCUTANEOUS TISSUE DISORDERS,,SKIN AND SUBCUTANEOUS TISSUE DISORDERS,,MILD,N,,POSSIBLE,NOT RECOVERED/NOT RESOLVED,N,N,N,N,N,N,N,1/25/2014,1/12/2014,,2,,Phase 1
CDISCPILOT01,AE,01-701-1239,1239,1/11/2014,7/11/2014,1/11/2014,7/10/2014,,2014-07-11T15:40,,,701,56,YEARS,M,WHITE,HISPANIC OR LATINO,Xan_Hi,Xanomeline High Dose,Xan_Hi,Xanomeline High Dose,USA,12/28/2013,-14,6,E11,ERYTHEMA,ERYTHEMA,,ERYTHEMA,,HLT_0284,,HLGT_0192,,SKIN AND SUBCUTANEOUS TISSUE DISORDERS,,SKIN AND SUBCUTANEOUS TISSUE DISORDERS,,MODERATE,N,,POSSIBLE,NOT RECOVERED/NOT RESOLVED,N,N,N,N,N,N,N,2/19/2014,1/12/2014,,2,,Phase 1
CDISCPILOT01,AE,01-701-1239,1239,1/11/2014,7/11/2014,1/11/2014,7/10/2014,,2014-07-11T15:40,,,701,56,YEARS,M,WHITE,HISPANIC OR LATINO,Xan_Hi,Xanomeline High Dose,Xan_Hi,Xanomeline High Dose,USA,12/28/2013,-14,9,E16,FATIGUE,FATIGUE,,FATIGUE,,HLT_0043,,HLGT_0181,,GENERAL DISORDERS AND ADMINISTRATION SITE CONDITIONS,,GENERAL DISORDERS AND ADMINISTRATION SITE CONDITIONS,,MILD,N,,REMOTE,NOT RECOVERED/NOT RESOLVED,N,N,N,N,N,N,N,4/2/2014,2014-03,,,,Phase 1
CDISCPILOT01,AE,01-701-1239,1239,1/11/2014,7/11/2014,1/11/2014,7/10/2014,,2014-07-11T15:40,,,701,56,YEARS,M,WHITE,HISPANIC OR LATINO,Xan_Hi,Xanomeline High Dose,Xan_Hi,Xanomeline High Dose,USA,12/28/2013,-14,10,E17,HORDEOLUM,STYE,,HORDEOLUM,,HLT_0604,,HLGT_0290,,INFECTIONS AND INFESTATIONS,,INFECTIONS AND INFESTATIONS,,MILD,N,,NONE,NOT RECOVERED/NOT RESOLVED,N,N,N,N,N,N,N,5/2/2014,2014-04,,,,Phase 1
CDISCPILOT01,AE,01-701-1239,1239,1/11/2014,7/11/2014,1/11/2014,7/10/2014,,2014-07-11T15:40,,,701,56,YEARS,M,WHITE,HISPANIC OR LATINO,Xan_Hi,Xanomeline High Dose,Xan_Hi,Xanomeline High Dose,USA,12/28/2013,-14,3,E12,PRURITUS,ITCHING,,PRURITUS,,HLT_0778,,HLGT_0695,,SKIN AND SUBCUTANEOUS TISSUE DISORDERS,,SKIN AND SUBCUTANEOUS TISSUE DISORDERS,,MILD,N,,POSSIBLE,NOT RECOVERED/NOT RESOLVED,N,N,N,N,N,N,N,1/25/2014,1/13/2014,,3,,Phase 1
CDISCPILOT01,AE,01-701-1239,1239,1/11/2014,7/11/2014,1/11/2014,7/10/2014,,2014-07-11T15:40,,,701,56,YEARS,M,WHITE,HISPANIC OR LATINO,Xan_Hi,Xanomeline High Dose,Xan_Hi,Xanomeline High Dose,USA,12/28/2013,-14,2,E15,SKIN ODOUR ABNORMAL,SKIN ODOR ABNORMAL,,SKIN ODOUR ABNORMAL,,HLT_0510,,HLGT_0184,,SKIN AND SUBCUTANEOUS TISSUE DISORDERS,,SKIN AND SUBCUTANEOUS TISSUE DISORDERS,,MILD,N,,REMOTE,NOT RECOVERED/NOT RESOLVED,N,N,N,N,N,N,N,1/25/2014,1/12/2014,,2,,Phase 1
CDISCPILOT01,AE,01-701-1239,1239,1/11/2014,7/11/2014,1/11/2014,7/10/2014,,2014-07-11T15:40,,,701,56,YEARS,M,WHITE,HISPANIC OR LATINO,Xan_Hi,Xanomeline High Dose,Xan_Hi,Xanomeline High Dose,USA,12/28/2013,-14,7,E14,UPPER RESPIRATORY TRACT INFECTION,UPPER RESPIRATORY INFECTION,,UPPER RESPIRATORY TRACT INFECTION,,HLT_0520,,HLGT_0489,,INFECTIONS AND INFESTATIONS,,INFECTIONS AND INFESTATIONS,,MILD,N,,NONE,NOT RECOVERED/NOT RESOLVED,N,N,N,N,N,N,N,3/6/2014,2/20/2014,3/12/2014,41,61,Phase 1
CDISCPILOT01,AE,01-701-1239,1239,1/11/2014,7/11/2014,1/11/2014,7/10/2014,,2014-07-11T15:40,,,701,56,YEARS,M,WHITE,HISPANIC OR LATINO,Xan_Hi,Xanomeline High Dose,Xan_Hi,Xanomeline High Dose,USA,12/28/2013,-14,8,E14,UPPER RESPIRATORY TRACT INFECTION,UPPER RESPIRATORY INFECTION,,UPPER RESPIRATORY TRACT INFECTION,,HLT_0520,,HLGT_0489,,INFECTIONS AND INFESTATIONS,,INFECTIONS AND INFESTATIONS,,MILD,N,,NONE,RECOVERED/RESOLVED,N,N,N,N,N,N,N,4/2/2014,2/20/2014,3/12/2014,41,61,Phase 1
CDISCPILOT01,AE,01-701-1275,1275,2/7/2014,6/14/2014,2/7/2014,5/31/2014,,2014-06-14T12:35,,,701,61,YEARS,M,AMERICAN INDIAN OR ALASKA NATIVE,NOT HISPANIC OR LATINO,Xan_Hi,Xanomeline High Dose,Xan_Hi,Xanomeline High Dose,USA,1/25/2014,-13,7,E09,COUGH,COUGH,,COUGH,,HLT_0701,,HLGT_0280,,"RESPIRATORY, THORACIC AND MEDIASTINAL DISORDERS",,"RESPIRATORY, THORACIC AND MEDIASTINAL DISORDERS",,MILD,N,,NONE,NOT RECOVERED/NOT RESOLVED,N,N,N,N,N,N,N,3/22/2014,3/12/2014,3/27/2014,34,49,Phase 1
CDISCPILOT01,AE,01-701-1275,1275,2/7/2014,6/14/2014,2/7/2014,5/31/2014,,2014-06-14T12:35,,,701,61,YEARS,M,AMERICAN INDIAN OR ALASKA NATIVE,NOT HISPANIC OR LATINO,Xan_Hi,Xanomeline High Dose,Xan_Hi,Xanomeline High Dose,USA,1/25/2014,-13,9,E09,COUGH,COUGH,,COUGH,,HLT_0701,,HLGT_0280,,"RESPIRATORY, THORACIC AND MEDIASTINAL DISORDERS",,"RESPIRATORY, THORACIC AND MEDIASTINAL DISORDERS",,MILD,N,,NONE,RECOVERED/RESOLVED,N,N,N,N,N,N,N,4/5/2014,3/12/2014,3/27/2014,34,49,Phase 1
CDISCPILOT01,AE,01-701-1275,1275,2/7/2014,6/14/2014,2/7/2014,5/31/2014,,2014-06-14T12:35,,,701,61,YEARS,M,AMERICAN INDIAN OR ALASKA NATIVE,NOT HISPANIC OR LATINO,Xan_Hi,Xanomeline High Dose,Xan_Hi,Xanomeline High Dose,USA,1/25/2014,-13,3,E06,ERYTHEMA,ERYTHEMA,,ERYTHEMA,,HLT_0284,,HLGT_0192,,SKIN AND SUBCUTANEOUS TISSUE DISORDERS,,SKIN AND SUBCUTANEOUS TISSUE DISORDERS,,MILD,N,,POSSIBLE,NOT RECOVERED/NOT RESOLVED,N,N,N,N,N,N,N,3/7/2014,2/24/2014,6/12/2014,18,126,Phase 1
CDISCPILOT01,AE,01-701-1275,1275,2/7/2014,6/14/2014,2/7/2014,5/31/2014,,2014-06-14T12:35,,,701,61,YEARS,M,AMERICAN INDIAN OR ALASKA NATIVE,NOT HISPANIC OR LATINO,Xan_Hi,Xanomeline High Dose,Xan_Hi,Xanomeline High Dose,USA,1/25/2014,-13,12,E06,ERYTHEMA,ERYTHEMA,,ERYTHEMA,,HLT_0284,,HLGT_0192,,SKIN AND SUBCUTANEOUS TISSUE DISORDERS,,SKIN AND SUBCUTANEOUS TISSUE DISORDERS,,MILD,N,,POSSIBLE,RECOVERED/RESOLVED,N,N,N,N,N,N,N,6/14/2014,2/24/2014,6/12/2014,18,126,Phase 1
CDISCPILOT01,AE,01-701-1275,1275,2/7/2014,6/14/2014,2/7/2014,5/31/2014,,2014-06-14T12:35,,,701,61,YEARS,M,AMERICAN INDIAN OR ALASKA NATIVE,NOT HISPANIC OR LATINO,Xan_Hi,Xanomeline High Dose,Xan_Hi,Xanomeline High Dose,USA,1/25/2014,-13,8,E10,NASAL CONGESTION,NASAL CONGESTION,,NASAL CONGESTION,,HLT_0118,,HLGT_0549,,"RESPIRATORY, THORACIC AND MEDIASTINAL DISORDERS",,"RESPIRATORY, THORACIC AND MEDIASTINAL DISORDERS",,MILD,N,,NONE,NOT RECOVERED/NOT RESOLVED,N,N,N,N,N,N,N,3/22/2014,3/12/2014,3/27/2014,34,49,Phase 1
CDISCPILOT01,AE,01-701-1275,1275,2/7/2014,6/14/2014,2/7/2014,5/31/2014,,2014-06-14T12:35,,,701,61,YEARS,M,AMERICAN INDIAN OR ALASKA NATIVE,NOT HISPANIC OR LATINO,Xan_Hi,Xanomeline High Dose,Xan_Hi,Xanomeline High Dose,USA,1/25/2014,-13,10,E10,NASAL CONGESTION,NASAL CONGESTION,,NASAL CONGESTION,,HLT_0118,,HLGT_0549,,"RESPIRATORY, THORACIC AND MEDIASTINAL DISORDERS",,"RESPIRATORY, THORACIC AND MEDIASTINAL DISORDERS",,MILD,N,,NONE,RECOVERED/RESOLVED,N,N,N,N,N,N,N,4/5/2014,3/12/2014,3/27/2014,34,49,Phase 1
CDISCPILOT01,AE,01-701-1275,1275,2/7/2014,6/14/2014,2/7/2014,5/31/2014,,2014-06-14T12:35,,,701,61,YEARS,M,AMERICAN INDIAN OR ALASKA NATIVE,NOT HISPANIC OR LATINO,Xan_Hi,Xanomeline High Dose,Xan_Hi,Xanomeline High Dose,USA,1/25/2014,-13,1,E04,NAUSEA,NAUSEA,,NAUSEA,,HLT_0742,,HLGT_0326,,GASTROINTESTINAL DISORDERS,,GASTROINTESTINAL DISORDERS,,MILD,N,,POSSIBLE,NOT RECOVERED/NOT RESOLVED,N,N,N,N,N,N,N,2/22/2014,2/13/2014,6/3/2014,7,117,Phase 1
CDISCPILOT01,AE,01-701-1275,1275,2/7/2014,6/14/2014,2/7/2014,5/31/2014,,2014-06-14T12:35,,,701,61,YEARS,M,AMERICAN INDIAN OR ALASKA NATIVE,NOT HISPANIC OR LATINO,Xan_Hi,Xanomeline High Dose,Xan_Hi,Xanomeline High Dose,USA,1/25/2014,-13,11,E04,NAUSEA,NAUSEA,,NAUSEA,,HLT_0742,,HLGT_0326,,GASTROINTESTINAL DISORDERS,,GASTROINTESTINAL DISORDERS,,MILD,N,,POSSIBLE,RECOVERED/RESOLVED,N,N,N,N,N,N,N,6/14/2014,2/13/2014,6/3/2014,7,117,Phase 1
CDISCPILOT01,AE,01-701-1275,1275,2/7/2014,6/14/2014,2/7/2014,5/31/2014,,2014-06-14T12:35,,,701,61,YEARS,M,AMERICAN INDIAN OR ALASKA NATIVE,NOT HISPANIC OR LATINO,Xan_Hi,Xanomeline High Dose,Xan_Hi,Xanomeline High Dose,USA,1/25/2014,-13,5,E08,PAROSMIA,STRANGE SMELL SENSATION,,PAROSMIA,,HLT_0258,,HLGT_0471,,NERVOUS SYSTEM DISORDERS,,NERVOUS SYSTEM DISORDERS,,MILD,N,,POSSIBLE,NOT RECOVERED/NOT RESOLVED,N,N,N,N,N,N,N,3/7/2014,2/24/2014,6/3/2014,18,117,Phase 1
CDISCPILOT01,AE,01-701-1275,1275,2/7/2014,6/14/2014,2/7/2014,5/31/2014,,2014-06-14T12:35,,,701,61,YEARS,M,AMERICAN INDIAN OR ALASKA NATIVE,NOT HISPANIC OR LATINO,Xan_Hi,Xanomeline High Dose,Xan_Hi,Xanomeline High Dose,USA,1/25/2014,-13,14,E08,PAROSMIA,STRANGE SMELL SENSATION,,PAROSMIA,,HLT_0258,,HLGT_0471,,NERVOUS SYSTEM DISORDERS,,NERVOUS SYSTEM DISORDERS,,MILD,N,,POSSIBLE,RECOVERED/RESOLVED,N,N,N,N,N,N,N,6/14/2014,2/24/2014,6/3/2014,18,117,Phase 1
CDISCPILOT01,AE,01-701-1275,1275,2/7/2014,6/14/2014,2/7/2014,5/31/2014,,2014-06-14T12:35,,,701,61,YEARS,M,AMERICAN INDIAN OR ALASKA NATIVE,NOT HISPANIC OR LATINO,Xan_Hi,Xanomeline High Dose,Xan_Hi,Xanomeline High Dose,USA,1/25/2014,-13,6,E11,PRURITUS,ITCHING,,PRURITUS,,HLT_0778,,HLGT_0695,,SKIN AND SUBCUTANEOUS TISSUE DISORDERS,,SKIN AND SUBCUTANEOUS TISSUE DISORDERS,,MILD,N,,POSSIBLE,NOT RECOVERED/NOT RESOLVED,N,N,N,N,N,N,N,3/7/2014,2/24/2014,6/12/2014,18,126,Phase 1
CDISCPILOT01,AE,01-701-1275,1275,2/7/2014,6/14/2014,2/7/2014,5/31/2014,,2014-06-14T12:35,,,701,61,YEARS,M,AMERICAN INDIAN OR ALASKA NATIVE,NOT HISPANIC OR LATINO,Xan_Hi,Xanomeline High Dose,Xan_Hi,Xanomeline High Dose,USA,1/25/2014,-13,15,E11,PRURITUS,ITCHING,,PRURITUS,,HLT_0778,,HLGT_0695,,SKIN AND SUBCUTANEOUS TISSUE DISORDERS,,SKIN AND SUBCUTANEOUS TISSUE DISORDERS,,MILD,N,,POSSIBLE,RECOVERED/RESOLVED,N,N,N,N,N,N,N,6/14/2014,2/24/2014,6/12/2014,18,126,Phase 1
CDISCPILOT01,AE,01-701-1275,1275,2/7/2014,6/14/2014,2/7/2014,5/31/2014,,2014-06-14T12:35,,,701,61,YEARS,M,AMERICAN INDIAN OR ALASKA NATIVE,NOT HISPANIC OR LATINO,Xan_Hi,Xanomeline High Dose,Xan_Hi,Xanomeline High Dose,USA,1/25/2014,-13,4,E07,SALIVARY HYPERSECRETION,HYPERSALIVATION,,SALIVARY HYPERSECRETION,,HLT_0374,,HLGT_0488,,GASTROINTESTINAL DISORDERS,,GASTROINTESTINAL DISORDERS,,MILD,N,,POSSIBLE,NOT RECOVERED/NOT RESOLVED,N,N,N,N,N,N,N,3/7/2014,2/24/2014,6/3/2014,18,117,Phase 1
CDISCPILOT01,AE,01-701-1275,1275,2/7/2014,6/14/2014,2/7/2014,5/31/2014,,2014-06-14T12:35,,,701,61,YEARS,M,AMERICAN INDIAN OR ALASKA NATIVE,NOT HISPANIC OR LATINO,Xan_Hi,Xanomeline High Dose,Xan_Hi,Xanomeline High Dose,USA,1/25/2014,-13,13,E07,SALIVARY HYPERSECRETION,HYPERSALIVATION,,SALIVARY HYPERSECRETION,,HLT_0374,,HLGT_0488,,GASTROINTESTINAL DISORDERS,,GASTROINTESTINAL DISORDERS,,MILD,N,,POSSIBLE,RECOVERED/RESOLVED,N,N,N,N,N,N,N,6/14/2014,2/24/2014,6/3/2014,18,117,Phase 1
CDISCPILOT01,AE,01-701-1275,1275,2/7/2014,6/14/2014,2/7/2014,5/31/2014,,2014-06-14T12:35,,,701,61,YEARS,M,AMERICAN INDIAN OR ALASKA NATIVE,NOT HISPANIC OR LATINO,Xan_Hi,Xanomeline High Dose,Xan_Hi,Xanomeline High Dose,USA,1/25/2014,-13,2,E05,VOMITING,VOMITING,,VOMITING,,HLT_0016,,HLGT_0350,,GASTROINTESTINAL DISORDERS,,GASTROINTESTINAL DISORDERS,,MILD,N,,POSSIBLE,RECOVERED/RESOLVED,N,N,N,N,N,N,N,3/7/2014,2/23/2014,2/23/2014,17,17,Phase 1
CDISCPILOT01,AE,01-701-1287,1287,1/25/2014,7/26/2014,1/25/2014,7/26/2014,,2014-07-26T13:15,,,701,56,YEARS,F,WHITE,HISPANIC OR LATINO,Xan_Hi,Xanomeline High Dose,Xan_Hi,Xanomeline High Dose,USA,1/17/2014,-8,3,E04,APPLICATION SITE ERYTHEMA,APPLICATION SITE REDNESS,,APPLICATION SITE ERYTHEMA,,HLT_0617,,HLGT_0152,,GENERAL DISORDERS AND ADMINISTRATION SITE CONDITIONS,,GENERAL DISORDERS AND ADMINISTRATION SITE CONDITIONS,,MILD,N,,PROBABLE,NOT RECOVERED/NOT RESOLVED,N,N,N,N,N,N,N,3/21/2014,3/9/2014,,44,,Phase 1
CDISCPILOT01,AE,01-701-1287,1287,1/25/2014,7/26/2014,1/25/2014,7/26/2014,,2014-07-26T13:15,,,701,56,YEARS,F,WHITE,HISPANIC OR LATINO,Xan_Hi,Xanomeline High Dose,Xan_Hi,Xanomeline High Dose,USA,1/17/2014,-8,2,E03,APPLICATION SITE PRURITUS,APPLICATION SITE ITCHING,,APPLICATION SITE PRURITUS,,HLT_0317,,HLGT_0338,,GENERAL DISORDERS AND ADMINISTRATION SITE CONDITIONS,,GENERAL DISORDERS AND ADMINISTRATION SITE CONDITIONS,,MILD,N,,POSSIBLE,NOT RECOVERED/NOT RESOLVED,N,N,N,N,N,N,N,3/6/2014,2/22/2014,,29,,Phase 1
CDISCPILOT01,AE,01-701-1287,1287,1/25/2014,7/26/2014,1/25/2014,7/26/2014,,2014-07-26T13:15,,,701,56,YEARS,F,WHITE,HISPANIC OR LATINO,Xan_Hi,Xanomeline High Dose,Xan_Hi,Xanomeline High Dose,USA,1/17/2014,-8,4,E05,RHINORRHOEA,RUNNY NOSE,,RHINORRHOEA,,HLT_0635,,HLGT_0460,,"RESPIRATORY, THORACIC AND MEDIASTINAL DISORDERS",,"RESPIRATORY, THORACIC AND MEDIASTINAL DISORDERS",,MILD,N,,NONE,NOT RECOVERED/NOT RESOLVED,N,N,N,N,N,N,N,7/12/2014,7/9/2014,7/12/2014,166,169,Phase 2
CDISCPILOT01,AE,01-701-1287,1287,1/25/2014,7/26/2014,1/25/2014,7/26/2014,,2014-07-26T13:15,,,701,56,YEARS,F,WHITE,HISPANIC OR LATINO,Xan_Hi,Xanomeline High Dose,Xan_Hi,Xanomeline High Dose,USA,1/17/2014,-8,5,E05,RHINORRHOEA,RUNNY NOSE,,RHINORRHOEA,,HLT_0635,,HLGT_0460,,"RESPIRATORY, THORACIC AND MEDIASTINAL DISORDERS",,"RESPIRATORY, THORACIC AND MEDIASTINAL DISORDERS",,MILD,N,,NONE,RECOVERED/RESOLVED,N,N,N,N,N,N,N,7/26/2014,7/9/2014,7/12/2014,166,169,Phase 2
CDISCPILOT01,AE,01-701-1287,1287,1/25/2014,7/26/2014,1/25/2014,7/26/2014,,2014-07-26T13:15,,,701,56,YEARS,F,WHITE,HISPANIC OR LATINO,Xan_Hi,Xanomeline High Dose,Xan_Hi,Xanomeline High Dose,USA,1/17/2014,-8,1,E02,SALIVARY HYPERSECRETION,INCREASED SALIVATION,,SALIVARY HYPERSECRETION,,HLT_0374,,HLGT_0488,,GASTROINTESTINAL DISORDERS,,GASTROINTESTINAL DISORDERS,,MILD,N,,NONE,NOT RECOVERED/NOT RESOLVED,N,N,N,N,N,N,N,2/11/2014,1/26/2014,,2,,Phase 1
CDISCPILOT01,AE,01-701-1294,1294,3/24/2013,6/14/2013,3/24/2013,6/14/2013,,10/8/2013,,,701,67,YEARS,M,WHITE,NOT HISPANIC OR LATINO,Xan_Lo,Xanomeline Low Dose,Xan_Lo,Xanomeline Low Dose,USA,3/17/2013,-7,3,E08,APPLICATION SITE ERYTHEMA,APPLICATION SITE REDNESS,,APPLICATION SITE ERYTHEMA,,HLT_0617,,HLGT_0152,,GENERAL DISORDERS AND ADMINISTRATION SITE CONDITIONS,,GENERAL DISORDERS AND ADMINISTRATION SITE CONDITIONS,,MILD,N,,PROBABLE,NOT RECOVERED/NOT RESOLVED,N,N,N,N,N,N,N,5/22/2013,5/19/2013,,57,,Phase 1
CDISCPILOT01,AE,01-701-1294,1294,3/24/2013,6/14/2013,3/24/2013,6/14/2013,,10/8/2013,,,701,67,YEARS,M,WHITE,NOT HISPANIC OR LATINO,Xan_Lo,Xanomeline Low Dose,Xan_Lo,Xanomeline Low Dose,USA,3/17/2013,-7,5,E08,APPLICATION SITE ERYTHEMA,APPLICATION SITE REDNESS,,APPLICATION SITE ERYTHEMA,,HLT_0617,,HLGT_0152,,GENERAL DISORDERS AND ADMINISTRATION SITE CONDITIONS,,GENERAL DISORDERS AND ADMINISTRATION SITE CONDITIONS,,MODERATE,N,,PROBABLE,NOT RECOVERED/NOT RESOLVED,N,N,N,N,N,N,N,6/14/2013,5/19/2013,,57,,Phase 1
CDISCPILOT01,AE,01-701-1294,1294,3/24/2013,6/14/2013,3/24/2013,6/14/2013,,10/8/2013,,,701,67,YEARS,M,WHITE,NOT HISPANIC OR LATINO,Xan_Lo,Xanomeline Low Dose,Xan_Lo,Xanomeline Low Dose,USA,3/17/2013,-7,1,E06,APPLICATION SITE PRURITUS,APPLICATION SITE ITCHING,,APPLICATION SITE PRURITUS,,HLT_0317,,HLGT_0338,,GENERAL DISORDERS AND ADMINISTRATION SITE CONDITIONS,,GENERAL DISORDERS AND ADMINISTRATION SITE CONDITIONS,,MODERATE,N,,NONE,RECOVERED/RESOLVED,N,N,N,N,N,N,N,3/24/2013,3/22/2013,3/23/2013,-2,-1,Phase 1
CDISCPILOT01,AE,01-701-1294,1294,3/24/2013,6/14/2013,3/24/2013,6/14/2013,,10/8/2013,,,701,67,YEARS,M,WHITE,NOT HISPANIC OR LATINO,Xan_Lo,Xanomeline Low Dose,Xan_Lo,Xanomeline Low Dose,USA,3/17/2013,-7,2,E07,APPLICATION SITE PRURITUS,APPLICATION SITE ITCHING,,APPLICATION SITE PRURITUS,,HLT_0317,,HLGT_0338,,GENERAL DISORDERS AND ADMINISTRATION SITE CONDITIONS,,GENERAL DISORDERS AND ADMINISTRATION SITE CONDITIONS,,MILD,N,,POSSIBLE,NOT RECOVERED/NOT RESOLVED,N,N,N,N,N,N,N,5/22/2013,5/19/2013,,57,,Phase 1
CDISCPILOT01,AE,01-701-1294,1294,3/24/2013,6/14/2013,3/24/2013,6/14/2013,,10/8/2013,,,701,67,YEARS,M,WHITE,NOT HISPANIC OR LATINO,Xan_Lo,Xanomeline Low Dose,Xan_Lo,Xanomeline Low Dose,USA,3/17/2013,-7,4,E07,APPLICATION SITE PRURITUS,APPLICATION SITE ITCHING,,APPLICATION SITE PRURITUS,,HLT_0317,,HLGT_0338,,GENERAL DISORDERS AND ADMINISTRATION SITE CONDITIONS,,GENERAL DISORDERS AND ADMINISTRATION SITE CONDITIONS,,MODERATE,N,,POSSIBLE,NOT RECOVERED/NOT RESOLVED,N,N,N,N,N,N,N,6/14/2013,5/19/2013,,57,,Phase 1
CDISCPILOT01,AE,01-701-1294,1294,3/24/2013,6/14/2013,3/24/2013,6/14/2013,,10/8/2013,,,701,67,YEARS,M,WHITE,NOT HISPANIC OR LATINO,Xan_Lo,Xanomeline Low Dose,Xan_Lo,Xanomeline Low Dose,USA,3/17/2013,-7,6,E09,RASH ERYTHEMATOUS,ERYTHEMATOUS RASH,,RASH ERYTHEMATOUS,,HLT_0336,,HLGT_0701,,SKIN AND SUBCUTANEOUS TISSUE DISORDERS,,SKIN AND SUBCUTANEOUS TISSUE DISORDERS,,MODERATE,N,,PROBABLE,NOT RECOVERED/NOT RESOLVED,N,N,N,N,N,N,N,6/14/2013,6/10/2013,,79,,Phase 1
CDISCPILOT01,AE,01-701-1302,1302,8/29/2013,11/5/2013,8/29/2013,11/5/2013,,2/13/2014,,,701,61,YEARS,M,WHITE,NOT HISPANIC OR LATINO,Xan_Hi,Xanomeline High Dose,Xan_Hi,Xanomeline High Dose,USA,8/20/2013,-9,16,E27,APPLICATION SITE ERYTHEMA,APPLICATION SITE REDNESS,,APPLICATION SITE ERYTHEMA,,HLT_0617,,HLGT_0152,,GENERAL DISORDERS AND ADMINISTRATION SITE CONDITIONS,,GENERAL DISORDERS AND ADMINISTRATION SITE CONDITIONS,,MILD,N,,PROBABLE,NOT RECOVERED/NOT RESOLVED,N,N,N,N,N,N,N,10/22/2013,10/15/2013,,48,,Phase 1
CDISCPILOT01,AE,01-701-1302,1302,8/29/2013,11/5/2013,8/29/2013,11/5/2013,,2/13/2014,,,701,61,YEARS,M,WHITE,NOT HISPANIC OR LATINO,Xan_Hi,Xanomeline High Dose,Xan_Hi,Xanomeline High Dose,USA,8/20/2013,-9,1,E21,APPLICATION SITE PERSPIRATION,APPLICATION SITE PERSPIRATION,,APPLICATION SITE PERSPIRATION,,HLT_0283,,HLGT_0403,,GENERAL DISORDERS AND ADMINISTRATION SITE CONDITIONS,,GENERAL DISORDERS AND ADMINISTRATION SITE CONDITIONS,,MILD,N,,POSSIBLE,NOT RECOVERED/NOT RESOLVED,N,N,N,N,N,N,N,9/15/2013,8/30/2013,,2,,Phase 1
CDISCPILOT01,AE,01-701-1302,1302,8/29/2013,11/5/2013,8/29/2013,11/5/2013,,2/13/2014,,,701,61,YEARS,M,WHITE,NOT HISPANIC OR LATINO,Xan_Hi,Xanomeline High Dose,Xan_Hi,Xanomeline High Dose,USA,8/20/2013,-9,17,E28,APPLICATION SITE PRURITUS,APPLICATION SITE ITCHING,,APPLICATION SITE PRURITUS,,HLT_0317,,HLGT_0338,,GENERAL DISORDERS AND ADMINISTRATION SITE CONDITIONS,,GENERAL DISORDERS AND ADMINISTRATION SITE CONDITIONS,,MILD,N,,PROBABLE,NOT RECOVERED/NOT RESOLVED,N,N,N,N,N,N,N,10/22/2013,10/15/2013,,48,,Phase 1
CDISCPILOT01,AE,01-701-1302,1302,8/29/2013,11/5/2013,8/29/2013,11/5/2013,,2/13/2014,,,701,61,YEARS,M,WHITE,NOT HISPANIC OR LATINO,Xan_Hi,Xanomeline High Dose,Xan_Hi,Xanomeline High Dose,USA,8/20/2013,-9,12,E19,CONTUSION,BRUISE,,CONTUSION,,HLT_0713,,HLGT_0381,,"INJURY, POISONING AND PROCEDURAL COMPLICATIONS",,"INJURY, POISONING AND PROCEDURAL COMPLICATIONS",,MILD,N,,REMOTE,NOT RECOVERED/NOT RESOLVED,N,N,N,N,N,N,N,9/15/2013,9/5/2013,10/8/2013,8,41,Phase 1
CDISCPILOT01,AE,01-701-1302,1302,8/29/2013,11/5/2013,8/29/2013,11/5/2013,,2/13/2014,,,701,61,YEARS,M,WHITE,NOT HISPANIC OR LATINO,Xan_Hi,Xanomeline High Dose,Xan_Hi,Xanomeline High Dose,USA,8/20/2013,-9,15,E19,CONTUSION,BRUISE,,CONTUSION,,HLT_0713,,HLGT_0381,,"INJURY, POISONING AND PROCEDURAL COMPLICATIONS",,"INJURY, POISONING AND PROCEDURAL COMPLICATIONS",,MILD,N,,REMOTE,RECOVERED/RESOLVED,N,N,N,N,N,N,N,10/22/2013,9/5/2013,10/8/2013,8,41,Phase 1
CDISCPILOT01,AE,01-701-1302,1302,8/29/2013,11/5/2013,8/29/2013,11/5/2013,,2/13/2014,,,701,61,YEARS,M,WHITE,NOT HISPANIC OR LATINO,Xan_Hi,Xanomeline High Dose,Xan_Hi,Xanomeline High Dose,USA,8/20/2013,-9,9,E17,DIZZINESS,DIZZY,,DIZZINESS,,HLT_0619,,HLGT_0751,,NERVOUS SYSTEM DISORDERS,,NERVOUS SYSTEM DISORDERS,,MODERATE,N,,REMOTE,RECOVERED/RESOLVED,N,N,N,N,N,N,N,9/15/2013,9/2/2013,9/3/2013,5,6,Phase 1
CDISCPILOT01,AE,01-701-1302,1302,8/29/2013,11/5/2013,8/29/2013,11/5/2013,,2/13/2014,,,701,61,YEARS,M,WHITE,NOT HISPANIC OR LATINO,Xan_Hi,Xanomeline High Dose,Xan_Hi,Xanomeline High Dose,USA,8/20/2013,-9,11,E20,DIZZINESS,LIGHTHEADEDNESS,,DIZZINESS,,HLT_0619,,HLGT_0751,,NERVOUS SYSTEM DISORDERS,,NERVOUS SYSTEM DISORDERS,,MILD,N,,POSSIBLE,NOT RECOVERED/NOT RESOLVED,N,N,N,N,N,N,N,9/15/2013,9/4/2013,,7,,Phase 1
CDISCPILOT01,AE,01-701-1302,1302,8/29/2013,11/5/2013,8/29/2013,11/5/2013,,2/13/2014,,,701,61,YEARS,M,WHITE,NOT HISPANIC OR LATINO,Xan_Hi,Xanomeline High Dose,Xan_Hi,Xanomeline High Dose,USA,8/20/2013,-9,14,E25,EPISTAXIS,NOSE BLEED,,EPISTAXIS,,HLT_0386,,HLGT_0577,,"RESPIRATORY, THORACIC AND MEDIASTINAL DISORDERS",,"RESPIRATORY, THORACIC AND MEDIASTINAL DISORDERS",,MILD,N,,REMOTE,NOT RECOVERED/NOT RESOLVED,N,N,N,N,N,N,N,10/8/2013,9/30/2013,,33,,Phase 1
CDISCPILOT01,AE,01-701-1302,1302,8/29/2013,11/5/2013,8/29/2013,11/5/2013,,2/13/2014,,,701,61,YEARS,M,WHITE,NOT HISPANIC OR LATINO,Xan_Hi,Xanomeline High Dose,Xan_Hi,Xanomeline High Dose,USA,8/20/2013,-9,21,E31,FEELING ABNORMAL,FOGGY FEELING IN HEAD,,FEELING ABNORMAL,,HLT_0524,,HLGT_0749,,GENERAL DISORDERS AND ADMINISTRATION SITE CONDITIONS,,GENERAL DISORDERS AND ADMINISTRATION SITE CONDITIONS,,MILD,N,,POSSIBLE,NOT RECOVERED/NOT RESOLVED,N,N,N,N,N,N,N,11/5/2013,10/24/2013,,57,,Phase 1
CDISCPILOT01,AE,01-701-1302,1302,8/29/2013,11/5/2013,8/29/2013,11/5/2013,,2/13/2014,,,701,61,YEARS,M,WHITE,NOT HISPANIC OR LATINO,Xan_Hi,Xanomeline High Dose,Xan_Hi,Xanomeline High Dose,USA,8/20/2013,-9,13,E23,HEADACHE,HEADACHE,,HEADACHE,,HLT_0064,,HLGT_0344,,NERVOUS SYSTEM DISORDERS,,NERVOUS SYSTEM DISORDERS,,MILD,N,,NONE,NOT RECOVERED/NOT RESOLVED,N,N,N,N,N,N,N,9/15/2013,9/15/2013,,18,,Phase 1
CDISCPILOT01,AE,01-701-1302,1302,8/29/2013,11/5/2013,8/29/2013,11/5/2013,,2/13/2014,,,701,61,YEARS,M,WHITE,NOT HISPANIC OR LATINO,Xan_Hi,Xanomeline High Dose,Xan_Hi,Xanomeline High Dose,USA,8/20/2013,-9,2,E24,HYPERHIDROSIS,PERSPIRATION EXCESSIVE,,HYPERHIDROSIS,,HLT_0587,,HLGT_0005,,SKIN AND SUBCUTANEOUS TISSUE DISORDERS,,SKIN AND SUBCUTANEOUS TISSUE DISORDERS,,MILD,N,,POSSIBLE,NOT RECOVERED/NOT RESOLVED,N,N,N,N,N,N,N,9/15/2013,8/30/2013,,2,,Phase 1
CDISCPILOT01,AE,01-701-1302,1302,8/29/2013,11/5/2013,8/29/2013,11/5/2013,,2/13/2014,,,701,61,YEARS,M,WHITE,NOT HISPANIC OR LATINO,Xan_Hi,Xanomeline High Dose,Xan_Hi,Xanomeline High Dose,USA,8/20/2013,-9,23,E33,LIBIDO DECREASED,LIBIDO DECREASED,,LIBIDO DECREASED,,HLT_0338,,HLGT_0496,,PSYCHIATRIC DISORDERS,,PSYCHIATRIC DISORDERS,,MILD,N,,POSSIBLE,NOT RECOVERED/NOT RESOLVED,N,N,N,N,N,N,N,11/5/2013,10/24/2013,,57,,Phase 1
CDISCPILOT01,AE,01-701-1302,1302,8/29/2013,11/5/2013,8/29/2013,11/5/2013,,2/13/2014,,,701,61,YEARS,M,WHITE,NOT HISPANIC OR LATINO,Xan_Hi,Xanomeline High Dose,Xan_Hi,Xanomeline High Dose,USA,8/20/2013,-9,22,E32,LISTLESS,LISTLESSNESS,,LISTLESS,,HLT_0657,,HLGT_0124,,PSYCHIATRIC DISORDERS,,PSYCHIATRIC DISORDERS,,MILD,N,,POSSIBLE,NOT RECOVERED/NOT RESOLVED,N,N,N,N,N,N,N,11/5/2013,10/24/2013,,57,,Phase 1
CDISCPILOT01,AE,01-701-1302,1302,8/29/2013,11/5/2013,8/29/2013,11/5/2013,,2/13/2014,,,701,61,YEARS,M,WHITE,NOT HISPANIC OR LATINO,Xan_Hi,Xanomeline High Dose,Xan_Hi,Xanomeline High Dose,USA,8/20/2013,-9,8,E16,MALAISE,MALAISE,,MALAISE,,HLT_0456,,HLGT_0178,,GENERAL DISORDERS AND ADMINISTRATION SITE CONDITIONS,,GENERAL DISORDERS AND ADMINISTRATION SITE CONDITIONS,,MILD,N,,REMOTE,NOT RECOVERED/NOT RESOLVED,N,N,N,N,N,N,N,9/15/2013,9/2/2013,,5,,Phase 1
CDISCPILOT01,AE,01-701-1302,1302,8/29/2013,11/5/2013,8/29/2013,11/5/2013,,2/13/2014,,,701,61,YEARS,M,WHITE,NOT HISPANIC OR LATINO,Xan_Hi,Xanomeline High Dose,Xan_Hi,Xanomeline High Dose,USA,8/20/2013,-9,18,E16,MALAISE,MALAISE,,MALAISE,,HLT_0456,,HLGT_0178,,GENERAL DISORDERS AND ADMINISTRATION SITE CONDITIONS,,GENERAL DISORDERS AND ADMINISTRATION SITE CONDITIONS,,MODERATE,N,,REMOTE,NOT RECOVERED/NOT RESOLVED,N,N,N,N,N,N,N,11/5/2013,9/2/2013,,5,,Phase 1
CDISCPILOT01,AE,01-701-1302,1302,8/29/2013,11/5/2013,8/29/2013,11/5/2013,,2/13/2014,,,701,61,YEARS,M,WHITE,NOT HISPANIC OR LATINO,Xan_Hi,Xanomeline High Dose,Xan_Hi,Xanomeline High Dose,USA,8/20/2013,-9,10,E18,MYALGIA,MYALGIA,,MYALGIA,,HLT_0700,,HLGT_0121,,MUSCULOSKELETAL AND CONNECTIVE TISSUE DISORDERS,,MUSCULOSKELETAL AND CONNECTIVE TISSUE DISORDERS,,MILD,N,,POSSIBLE,NOT RECOVERED/NOT RESOLVED,N,N,N,N,N,N,N,9/15/2013,9/2/2013,,5,,Phase 1
CDISCPILOT01,AE,01-701-1302,1302,8/29/2013,11/5/2013,8/29/2013,11/5/2013,,2/13/2014,,,701,61,YEARS,M,WHITE,NOT HISPANIC OR LATINO,Xan_Hi,Xanomeline High Dose,Xan_Hi,Xanomeline High Dose,USA,8/20/2013,-9,5,E13,NASAL CONGESTION,NASAL CONGESTION,,NASAL CONGESTION,,HLT_0118,,HLGT_0549,,"RESPIRATORY, THORACIC AND MEDIASTINAL DISORDERS",,"RESPIRATORY, THORACIC AND MEDIASTINAL DISORDERS",,MILD,N,,NONE,NOT RECOVERED/NOT RESOLVED,N,N,N,N,N,N,N,9/15/2013,9/1/2013,,4,,Phase 1
CDISCPILOT01,AE,01-701-1302,1302,8/29/2013,11/5/2013,8/29/2013,11/5/2013,,2/13/2014,,,701,61,YEARS,M,WHITE,NOT HISPANIC OR LATINO,Xan_Hi,Xanomeline High Dose,Xan_Hi,Xanomeline High Dose,USA,8/20/2013,-9,4,E22,PAIN,STINGING,,PAIN,,HLT_0314,,HLGT_0478,,GENERAL DISORDERS AND ADMINISTRATION SITE CONDITIONS,,GENERAL DISORDERS AND ADMINISTRATION SITE CONDITIONS,,MILD,N,,POSSIBLE,NOT RECOVERED/NOT RESOLVED,N,N,N,N,N,N,N,9/15/2013,8/31/2013,,3,,Phase 1
CDISCPILOT01,AE,01-701-1302,1302,8/29/2013,11/5/2013,8/29/2013,11/5/2013,,2/13/2014,,,701,61,YEARS,M,WHITE,NOT HISPANIC OR LATINO,Xan_Hi,Xanomeline High Dose,Xan_Hi,Xanomeline High Dose,USA,8/20/2013,-9,6,E14,PHARYNGOLARYNGEAL PAIN,SORE THROAT,,PHARYNGOLARYNGEAL PAIN,,HLT_0130,,HLGT_0402,,"RESPIRATORY, THORACIC AND MEDIASTINAL DISORDERS",,"RESPIRATORY, THORACIC AND MEDIASTINAL DISORDERS",,MILD,N,,NONE,NOT RECOVERED/NOT RESOLVED,N,N,N,N,N,N,N,9/15/2013,9/2/2013,,5,,Phase 1
CDISCPILOT01,AE,01-701-1302,1302,8/29/2013,11/5/2013,8/29/2013,11/5/2013,,2/13/2014,,,701,61,YEARS,M,WHITE,NOT HISPANIC OR LATINO,Xan_Hi,Xanomeline High Dose,Xan_Hi,Xanomeline High Dose,USA,8/20/2013,-9,7,E15,PRODUCTIVE COUGH,PRODUCTIVE COUGH,,PRODUCTIVE COUGH,,HLT_0545,,HLGT_0681,,"RESPIRATORY, THORACIC AND MEDIASTINAL DISORDERS",,"RESPIRATORY, THORACIC AND MEDIASTINAL DISORDERS",,MILD,N,,NONE,NOT RECOVERED/NOT RESOLVED,N,N,N,N,N,N,N,9/15/2013,9/2/2013,,5,,Phase 1
CDISCPILOT01,AE,01-701-1302,1302,8/29/2013,11/5/2013,8/29/2013,11/5/2013,,2/13/2014,,,701,61,YEARS,M,WHITE,NOT HISPANIC OR LATINO,Xan_Hi,Xanomeline High Dose,Xan_Hi,Xanomeline High Dose,USA,8/20/2013,-9,19,E29,RESPIRATORY TRACT CONGESTION,RESPIRATORY TRACT CONGESTION,,RESPIRATORY TRACT CONGESTION,,HLT_0330,,HLGT_0424,,"RESPIRATORY, THORACIC AND MEDIASTINAL DISORDERS",,"RESPIRATORY, THORACIC AND MEDIASTINAL DISORDERS",,MILD,N,,NONE,NOT RECOVERED/NOT RESOLVED,N,N,N,N,N,N,N,11/5/2013,10/23/2013,,56,,Phase 1
CDISCPILOT01,AE,01-701-1302,1302,8/29/2013,11/5/2013,8/29/2013,11/5/2013,,2/13/2014,,,701,61,YEARS,M,WHITE,NOT HISPANIC OR LATINO,Xan_Hi,Xanomeline High Dose,Xan_Hi,Xanomeline High Dose,USA,8/20/2013,-9,20,E30,RHINITIS,CORYZA,,RHINITIS,,HLT_0239,,HLGT_0322,,INFECTIONS AND INFESTATIONS,,INFECTIONS AND INFESTATIONS,,MILD,N,,NONE,NOT RECOVERED/NOT RESOLVED,N,N,N,N,N,N,N,11/5/2013,10/23/2013,,56,,Phase 1
CDISCPILOT01,AE,01-701-1302,1302,8/29/2013,11/5/2013,8/29/2013,11/5/2013,,2/13/2014,,,701,61,YEARS,M,WHITE,NOT HISPANIC OR LATINO,Xan_Hi,Xanomeline High Dose,Xan_Hi,Xanomeline High Dose,USA,8/20/2013,-9,3,E26,STOMACH DISCOMFORT,STOMACH UPSET,,STOMACH DISCOMFORT,,HLT_0065,,HLGT_0183,,GASTROINTESTINAL DISORDERS,,GASTROINTESTINAL DISORDERS,,MILD,N,,POSSIBLE,NOT RECOVERED/NOT RESOLVED,N,N,N,N,N,N,N,9/15/2013,8/30/2013,,2,,Phase 1
CDISCPILOT01,AE,01-701-1317,1317,5/22/2014,11/20/2014,5/22/2014,11/20/2014,,2014-11-20T11:54,,,701,68,YEARS,M,WHITE,NOT HISPANIC OR LATINO,Xan_Lo,Xanomeline Low Dose,Xan_Lo,Xanomeline Low Dose,USA,5/10/2014,-12,3,E13,APPLICATION SITE ERYTHEMA,APPLICATION SITE REDNESS,,APPLICATION SITE ERYTHEMA,,HLT_0617,,HLGT_0152,,GENERAL DISORDERS AND ADMINISTRATION SITE CONDITIONS,,GENERAL DISORDERS AND ADMINISTRATION SITE CONDITIONS,,MILD,N,,POSSIBLE,NOT RECOVERED/NOT RESOLVED,N,N,N,N,N,N,N,7/3/2014,6/23/2014,,33,,Phase 1
CDISCPILOT01,AE,01-701-1317,1317,5/22/2014,11/20/2014,5/22/2014,11/20/2014,,2014-11-20T11:54,,,701,68,YEARS,M,WHITE,NOT HISPANIC OR LATINO,Xan_Lo,Xanomeline Low Dose,Xan_Lo,Xanomeline Low Dose,USA,5/10/2014,-12,4,E14,APPLICATION SITE PRURITUS,APPLICATION SITE ITCHING,,APPLICATION SITE PRURITUS,,HLT_0317,,HLGT_0338,,GENERAL DISORDERS AND ADMINISTRATION SITE CONDITIONS,,GENERAL DISORDERS AND ADMINISTRATION SITE CONDITIONS,,MILD,N,,POSSIBLE,NOT RECOVERED/NOT RESOLVED,N,N,N,N,N,N,N,7/3/2014,6/23/2014,,33,,Phase 1
CDISCPILOT01,AE,01-701-1317,1317,5/22/2014,11/20/2014,5/22/2014,11/20/2014,,2014-11-20T11:54,,,701,68,YEARS,M,WHITE,NOT HISPANIC OR LATINO,Xan_Lo,Xanomeline Low Dose,Xan_Lo,Xanomeline Low Dose,USA,5/10/2014,-12,5,E15,APPLICATION SITE URTICARIA,APPLICATION SITE URTICARIA,,APPLICATION SITE URTICARIA,,HLT_0196,,HLGT_0233,,GENERAL DISORDERS AND ADMINISTRATION SITE CONDITIONS,,GENERAL DISORDERS AND ADMINISTRATION SITE CONDITIONS,,MILD,N,,POSSIBLE,NOT RECOVERED/NOT RESOLVED,N,N,N,N,N,N,N,7/3/2014,6/23/2014,,33,,Phase 1
CDISCPILOT01,AE,01-701-1317,1317,5/22/2014,11/20/2014,5/22/2014,11/20/2014,,2014-11-20T11:54,,,701,68,YEARS,M,WHITE,NOT HISPANIC OR LATINO,Xan_Lo,Xanomeline Low Dose,Xan_Lo,Xanomeline Low Dose,USA,5/10/2014,-12,2,E12,CYST,CYST,,CYST,,HLT_0763,,HLGT_0341,,GENERAL DISORDERS AND ADMINISTRATION SITE CONDITIONS,,GENERAL DISORDERS AND ADMINISTRATION SITE CONDITIONS,,MILD,N,,NONE,NOT RECOVERED/NOT RESOLVED,N,N,N,N,N,N,N,5/20/2014,5/13/2014,,-9,,Phase 1
CDISCPILOT01,AE,01-701-1317,1317,5/22/2014,11/20/2014,5/22/2014,11/20/2014,,2014-11-20T11:54,,,701,68,YEARS,M,WHITE,NOT HISPANIC OR LATINO,Xan_Lo,Xanomeline Low Dose,Xan_Lo,Xanomeline Low Dose,USA,5/10/2014,-12,6,E16,DEPRESSED MOOD,DEPRESSED MOOD,,DEPRESSED MOOD,,HLT_0784,,HLGT_0122,,PSYCHIATRIC DISORDERS,,PSYCHIATRIC DISORDERS,,MILD,N,,POSSIBLE,NOT RECOVERED/NOT RESOLVED,N,N,N,N,N,N,N,7/22/2014,7/4/2014,,44,,Phase 1
CDISCPILOT01,AE,01-701-1317,1317,5/22/2014,11/20/2014,5/22/2014,11/20/2014,,2014-11-20T11:54,,,701,68,YEARS,M,WHITE,NOT HISPANIC OR LATINO,Xan_Lo,Xanomeline Low Dose,Xan_Lo,Xanomeline Low Dose,USA,5/10/2014,-12,7,E16,DEPRESSED MOOD,DEPRESSED MOOD,,DEPRESSED MOOD,,HLT_0784,,HLGT_0122,,PSYCHIATRIC DISORDERS,,PSYCHIATRIC DISORDERS,,MODERATE,N,,POSSIBLE,NOT RECOVERED/NOT RESOLVED,N,N,N,N,N,N,N,10/9/2014,7/4/2014,,44,,Phase 1
CDISCPILOT01,AE,01-701-1317,1317,5/22/2014,11/20/2014,5/22/2014,11/20/2014,,2014-11-20T11:54,,,701,68,YEARS,M,WHITE,NOT HISPANIC OR LATINO,Xan_Lo,Xanomeline Low Dose,Xan_Lo,Xanomeline Low Dose,USA,5/10/2014,-12,9,E18,DYSPHONIA,HOARSENESS,,DYSPHONIA,,HLT_0073,,HLGT_0274,,"RESPIRATORY, THORACIC AND MEDIASTINAL DISORDERS",,"RESPIRATORY, THORACIC AND MEDIASTINAL DISORDERS",,MILD,N,,REMOTE,NOT RECOVERED/NOT RESOLVED,N,N,N,N,N,N,N,11/6/2014,11/3/2014,,166,,Phase 2
CDISCPILOT01,AE,01-701-1317,1317,5/22/2014,11/20/2014,5/22/2014,11/20/2014,,2014-11-20T11:54,,,701,68,YEARS,M,WHITE,NOT HISPANIC OR LATINO,Xan_Lo,Xanomeline Low Dose,Xan_Lo,Xanomeline Low Dose,USA,5/10/2014,-12,8,E17,FATIGUE,TIREDNESS,,FATIGUE,,HLT_0043,,HLGT_0181,,GENERAL DISORDERS AND ADMINISTRATION SITE CONDITIONS,,GENERAL DISORDERS AND ADMINISTRATION SITE CONDITIONS,,MILD,N,,REMOTE,NOT RECOVERED/NOT RESOLVED,N,N,N,N,N,N,N,10/9/2014,9/12/2014,,114,,Phase 2
CDISCPILOT01,AE,01-701-1317,1317,5/22/2014,11/20/2014,5/22/2014,11/20/2014,,2014-11-20T11:54,,,701,68,YEARS,M,WHITE,NOT HISPANIC OR LATINO,Xan_Lo,Xanomeline Low Dose,Xan_Lo,Xanomeline Low Dose,USA,5/10/2014,-12,1,E11,ONYCHOMYCOSIS,ONYCHOMYCOSIS,,ONYCHOMYCOSIS,,HLT_0275,,HLGT_0243,,INFECTIONS AND INFESTATIONS,,INFECTIONS AND INFESTATIONS,,MILD,N,,NONE,NOT RECOVERED/NOT RESOLVED,N,N,N,N,N,N,N,5/20/2014,5/13/2014,,-9,,Phase 1
CDISCPILOT01,AE,01-701-1324,1324,10/2/2012,4/2/2013,10/2/2012,4/2/2013,,2013-04-02T11:35,,,701,79,YEARS,M,WHITE,NOT HISPANIC OR LATINO,Xan_Lo,Xanomeline Low Dose,Xan_Lo,Xanomeline Low Dose,USA,9/16/2012,-16,1,E04,APPLICATION SITE ERYTHEMA,APPLICATION SITE ERYTHEMA,,APPLICATION SITE ERYTHEMA,,HLT_0617,,HLGT_0152,,GENERAL DISORDERS AND ADMINISTRATION SITE CONDITIONS,,GENERAL DISORDERS AND ADMINISTRATION SITE CONDITIONS,,MILD,N,,PROBABLE,NOT RECOVERED/NOT RESOLVED,N,N,N,N,N,N,N,10/30/2012,10/22/2012,,21,,Phase 1
CDISCPILOT01,AE,01-701-1324,1324,10/2/2012,4/2/2013,10/2/2012,4/2/2013,,2013-04-02T11:35,,,701,79,YEARS,M,WHITE,NOT HISPANIC OR LATINO,Xan_Lo,Xanomeline Low Dose,Xan_Lo,Xanomeline Low Dose,USA,9/16/2012,-16,2,E06,APPLICATION SITE PRURITUS,APPLICATION SITE ITCHING,,APPLICATION SITE PRURITUS,,HLT_0317,,HLGT_0338,,GENERAL DISORDERS AND ADMINISTRATION SITE CONDITIONS,,GENERAL DISORDERS AND ADMINISTRATION SITE CONDITIONS,,MILD,N,,PROBABLE,NOT RECOVERED/NOT RESOLVED,N,N,N,N,N,N,N,12/25/2012,12/2/2012,,62,,Phase 1
CDISCPILOT01,AE,01-701-1324,1324,10/2/2012,4/2/2013,10/2/2012,4/2/2013,,2013-04-02T11:35,,,701,79,YEARS,M,WHITE,NOT HISPANIC OR LATINO,Xan_Lo,Xanomeline Low Dose,Xan_Lo,Xanomeline Low Dose,USA,9/16/2012,-16,3,E05,APPLICATION SITE VESICLES,APPLICATION SITE BLISTER,,APPLICATION SITE VESICLES,,HLT_0180,,HLGT_0576,,GENERAL DISORDERS AND ADMINISTRATION SITE CONDITIONS,,GENERAL DISORDERS AND ADMINISTRATION SITE CONDITIONS,,MILD,N,,PROBABLE,NOT RECOVERED/NOT RESOLVED,N,N,N,N,N,N,N,12/25/2012,12/25/2012,1/16/2013,85,107,Phase 1
CDISCPILOT01,AE,01-701-1324,1324,10/2/2012,4/2/2013,10/2/2012,4/2/2013,,2013-04-02T11:35,,,701,79,YEARS,M,WHITE,NOT HISPANIC OR LATINO,Xan_Lo,Xanomeline Low Dose,Xan_Lo,Xanomeline Low Dose,USA,9/16/2012,-16,4,E05,APPLICATION SITE VESICLES,APPLICATION SITE BLISTER,,APPLICATION SITE VESICLES,,HLT_0180,,HLGT_0576,,GENERAL DISORDERS AND ADMINISTRATION SITE CONDITIONS,,GENERAL DISORDERS AND ADMINISTRATION SITE CONDITIONS,,MILD,N,,PROBABLE,RECOVERED/RESOLVED,N,N,N,N,N,N,N,1/22/2013,12/25/2012,1/16/2013,85,107,Phase 1
CDISCPILOT01,AE,01-701-1341,1341,1/5/2013,2/7/2013,1/5/2013,1/26/2013,,2/21/2013,,,701,51,YEARS,M,WHITE,NOT HISPANIC OR LATINO,Xan_Lo,Xanomeline Low Dose,Xan_Lo,Xanomeline Low Dose,USA,12/22/2012,-14,2,E10,APPLICATION SITE ERYTHEMA,APPLICATION SITE REDNESS,,APPLICATION SITE ERYTHEMA,,HLT_0617,,HLGT_0152,,GENERAL DISORDERS AND ADMINISTRATION SITE CONDITIONS,,GENERAL DISORDERS AND ADMINISTRATION SITE CONDITIONS,,MODERATE,N,,PROBABLE,NOT RECOVERED/NOT RESOLVED,N,N,N,N,N,N,N,2/7/2013,1/19/2013,,15,,Phase 1
CDISCPILOT01,AE,01-701-1341,1341,1/5/2013,2/7/2013,1/5/2013,1/26/2013,,2/21/2013,,,701,51,YEARS,M,WHITE,NOT HISPANIC OR LATINO,Xan_Lo,Xanomeline Low Dose,Xan_Lo,Xanomeline Low Dose,USA,12/22/2012,-14,4,E12,APPLICATION SITE ERYTHEMA,APPLICATION SITE REDNESS,,APPLICATION SITE ERYTHEMA,,HLT_0617,,HLGT_0152,,GENERAL DISORDERS AND ADMINISTRATION SITE CONDITIONS,,GENERAL DISORDERS AND ADMINISTRATION SITE CONDITIONS,,MODERATE,N,,PROBABLE,NOT RECOVERED/NOT RESOLVED,N,N,N,N,N,N,N,2/7/2013,1/26/2013,,22,,Phase 1
CDISCPILOT01,AE,01-701-1341,1341,1/5/2013,2/7/2013,1/5/2013,1/26/2013,,2/21/2013,,,701,51,YEARS,M,WHITE,NOT HISPANIC OR LATINO,Xan_Lo,Xanomeline Low Dose,Xan_Lo,Xanomeline Low Dose,USA,12/22/2012,-14,5,E13,APPLICATION SITE IRRITATION,APPLICATION SITE BURNING,,APPLICATION SITE IRRITATION,,HLT_0061,,HLGT_0346,,GENERAL DISORDERS AND ADMINISTRATION SITE CONDITIONS,,GENERAL DISORDERS AND ADMINISTRATION SITE CONDITIONS,,MODERATE,N,,PROBABLE,RECOVERED/RESOLVED,N,N,N,N,N,N,N,2/7/2013,1/26/2013,1/30/2013,22,26,Phase 1
CDISCPILOT01,AE,01-701-1341,1341,1/5/2013,2/7/2013,1/5/2013,1/26/2013,,2/21/2013,,,701,51,YEARS,M,WHITE,NOT HISPANIC OR LATINO,Xan_Lo,Xanomeline Low Dose,Xan_Lo,Xanomeline Low Dose,USA,12/22/2012,-14,1,E09,APPLICATION SITE PRURITUS,APPLICATION SITE ITCHING,,APPLICATION SITE PRURITUS,,HLT_0317,,HLGT_0338,,GENERAL DISORDERS AND ADMINISTRATION SITE CONDITIONS,,GENERAL DISORDERS AND ADMINISTRATION SITE CONDITIONS,,MODERATE,N,,PROBABLE,NOT RECOVERED/NOT RESOLVED,N,N,N,N,N,N,N,2/7/2013,1/19/2013,,15,,Phase 1
CDISCPILOT01,AE,01-701-1341,1341,1/5/2013,2/7/2013,1/5/2013,1/26/2013,,2/21/2013,,,701,51,YEARS,M,WHITE,NOT HISPANIC OR LATINO,Xan_Lo,Xanomeline Low Dose,Xan_Lo,Xanomeline Low Dose,USA,12/22/2012,-14,3,E11,APPLICATION SITE PRURITUS,APPLICATION SITE ITCHING,,APPLICATION SITE PRURITUS,,HLT_0317,,HLGT_0338,,GENERAL DISORDERS AND ADMINISTRATION SITE CONDITIONS,,GENERAL DISORDERS AND ADMINISTRATION SITE CONDITIONS,,MODERATE,N,,PROBABLE,RECOVERED/RESOLVED,N,N,N,N,N,N,N,2/7/2013,1/26/2013,1/30/2013,22,26,Phase 1
CDISCPILOT01,DM,01-701-1345,1345,10/8/2013,3/18/2014,10/8/2013,3/18/2014,,2014-03-18T14:12,,,701,63,YEARS,F,WHITE,NOT HISPANIC OR LATINO,Pbo,Placebo,Pbo,Placebo,USA,10/1/2013,-7,,,,,,,,,,,,,,,,,,,,,,,,,,,,,,,,,Phase 1
CDISCPILOT01,AE,01-701-1360,1360,7/31/2013,8/14/2013,7/31/2013,8/5/2013,,2/11/2014,,,701,67,YEARS,M,WHITE,NOT HISPANIC OR LATINO,Xan_Hi,Xanomeline High Dose,Xan_Lo,Xanomeline Low Dose,USA,7/24/2013,-7,1,E08,APPLICATION SITE ERYTHEMA,APPLICATION SITE ERYTHEMA,,APPLICATION SITE ERYTHEMA,,HLT_0617,,HLGT_0152,,GENERAL DISORDERS AND ADMINISTRATION SITE CONDITIONS,,GENERAL DISORDERS AND ADMINISTRATION SITE CONDITIONS,,MODERATE,N,,PROBABLE,NOT RECOVERED/NOT RESOLVED,N,N,N,N,N,N,N,8/14/2013,8/2/2013,,3,,Phase 1
CDISCPILOT01,AE,01-701-1360,1360,7/31/2013,8/14/2013,7/31/2013,8/5/2013,,2/11/2014,,,701,67,YEARS,M,WHITE,NOT HISPANIC OR LATINO,Xan_Hi,Xanomeline High Dose,Xan_Lo,Xanomeline Low Dose,USA,7/24/2013,-7,2,E09,APPLICATION SITE PRURITUS,APPLICATION SITE ITCHING,,APPLICATION SITE PRURITUS,,HLT_0317,,HLGT_0338,,GENERAL DISORDERS AND ADMINISTRATION SITE CONDITIONS,,GENERAL DISORDERS AND ADMINISTRATION SITE CONDITIONS,,MODERATE,N,,PROBABLE,NOT RECOVERED/NOT RESOLVED,N,N,N,N,N,N,N,8/14/2013,8/2/2013,,3,,Phase 1
CDISCPILOT01,AE,01-701-1360,1360,7/31/2013,8/14/2013,7/31/2013,8/5/2013,,2/11/2014,,,701,67,YEARS,M,WHITE,NOT HISPANIC OR LATINO,Xan_Hi,Xanomeline High Dose,Xan_Lo,Xanomeline Low Dose,USA,7/24/2013,-7,3,E10,APPLICATION SITE VESICLES,APPLICATION SITE BLISTER,,APPLICATION SITE VESICLES,,HLT_0180,,HLGT_0576,,GENERAL DISORDERS AND ADMINISTRATION SITE CONDITIONS,,GENERAL DISORDERS AND ADMINISTRATION SITE CONDITIONS,,MODERATE,N,,PROBABLE,NOT RECOVERED/NOT RESOLVED,N,N,N,N,N,N,N,8/14/2013,8/5/2013,,6,,Phase 1
CDISCPILOT01,AE,01-701-1363,1363,5/30/2013,11/27/2013,5/30/2013,11/27/2013,,2013-11-27T10:00,,,701,81,YEARS,F,BLACK OR AFRICAN AMERICAN,NOT HISPANIC OR LATINO,Pbo,Placebo,Pbo,Placebo,USA,5/20/2013,-10,3,E11,APPLICATION SITE PRURITUS,APPLICATION SITE ITCHING,,APPLICATION SITE PRURITUS,,HLT_0317,,HLGT_0338,,GENERAL DISORDERS AND ADMINISTRATION SITE CONDITIONS,,GENERAL DISORDERS AND ADMINISTRATION SITE CONDITIONS,,MILD,N,,PROBABLE,NOT RECOVERED/NOT RESOLVED,N,N,N,N,N,N,N,7/24/2013,7/16/2013,,48,,Phase 1
CDISCPILOT01,AE,01-701-1363,1363,5/30/2013,11/27/2013,5/30/2013,11/27/2013,,2013-11-27T10:00,,,701,81,YEARS,F,BLACK OR AFRICAN AMERICAN,NOT HISPANIC OR LATINO,Pbo,Placebo,Pbo,Placebo,USA,5/20/2013,-10,5,E13,BACK PAIN,BACKACHE,,BACK PAIN,,HLT_0115,,HLGT_0508,,MUSCULOSKELETAL AND CONNECTIVE TISSUE DISORDERS,,MUSCULOSKELETAL AND CONNECTIVE TISSUE DISORDERS,,MILD,N,,NONE,NOT RECOVERED/NOT RESOLVED,N,N,N,N,N,N,N,10/14/2013,10/13/2013,10/15/2013,137,139,Phase 2
CDISCPILOT01,AE,01-701-1363,1363,5/30/2013,11/27/2013,5/30/2013,11/27/2013,,2013-11-27T10:00,,,701,81,YEARS,F,BLACK OR AFRICAN AMERICAN,NOT HISPANIC OR LATINO,Pbo,Placebo,Pbo,Placebo,USA,5/20/2013,-10,6,E13,BACK PAIN,BACKACHE,,BACK PAIN,,HLT_0115,,HLGT_0508,,MUSCULOSKELETAL AND CONNECTIVE TISSUE DISORDERS,,MUSCULOSKELETAL AND CONNECTIVE TISSUE DISORDERS,,MILD,N,,NONE,RECOVERED/RESOLVED,N,N,N,N,N,N,N,11/13/2013,10/13/2013,10/15/2013,137,139,Phase 2
CDISCPILOT01,AE,01-701-1363,1363,5/30/2013,11/27/2013,5/30/2013,11/27/2013,,2013-11-27T10:00,,,701,81,YEARS,F,BLACK OR AFRICAN AMERICAN,NOT HISPANIC OR LATINO,Pbo,Placebo,Pbo,Placebo,USA,5/20/2013,-10,2,E03,HEADACHE,HEADACHE,,HEADACHE,,HLT_0064,,HLGT_0344,,NERVOUS SYSTEM DISORDERS,,NERVOUS SYSTEM DISORDERS,,MODERATE,N,,POSSIBLE,NOT RECOVERED/NOT RESOLVED,N,N,N,N,N,N,N,7/24/2013,1986,,,,Phase 1
CDISCPILOT01,AE,01-701-1363,1363,5/30/2013,11/27/2013,5/30/2013,11/27/2013,,2013-11-27T10:00,,,701,81,YEARS,F,BLACK OR AFRICAN AMERICAN,NOT HISPANIC OR LATINO,Pbo,Placebo,Pbo,Placebo,USA,5/20/2013,-10,4,E03,HEADACHE,HEADACHE,,HEADACHE,,HLT_0064,,HLGT_0344,,NERVOUS SYSTEM DISORDERS,,NERVOUS SYSTEM DISORDERS,,MILD,N,,POSSIBLE,NOT RECOVERED/NOT RESOLVED,N,N,N,N,N,N,N,10/14/2013,1986,,,,Phase 1
CDISCPILOT01,AE,01-701-1363,1363,5/30/2013,11/27/2013,5/30/2013,11/27/2013,,2013-11-27T10:00,,,701,81,YEARS,F,BLACK OR AFRICAN AMERICAN,NOT HISPANIC OR LATINO,Pbo,Placebo,Pbo,Placebo,USA,5/20/2013,-10,1,E09,NAUSEA,NAUSEA,,NAUSEA,,HLT_0742,,HLGT_0326,,GASTROINTESTINAL DISORDERS,,GASTROINTESTINAL DISORDERS,,MILD,N,,REMOTE,RECOVERED/RESOLVED,N,N,N,N,N,N,N,6/25/2013,6/14/2013,6/15/2013,16,17,Phase 1
CDISCPILOT01,AE,01-701-1383,1383,2/4/2013,8/6/2013,2/4/2013,8/6/2013,,2013-08-06T12:00,,,701,72,YEARS,F,WHITE,NOT HISPANIC OR LATINO,Xan_Hi,Xanomeline High Dose,Xan_Hi,Xanomeline High Dose,USA,1/22/2013,-13,3,E06,APPLICATION SITE ERYTHEMA,APPLICATION SITE ERYTHEMA,,APPLICATION SITE ERYTHEMA,,HLT_0617,,HLGT_0152,,GENERAL DISORDERS AND ADMINISTRATION SITE CONDITIONS,,GENERAL DISORDERS AND ADMINISTRATION SITE CONDITIONS,,MILD,N,,POSSIBLE,RECOVERED/RESOLVED,N,N,N,N,N,N,N,4/2/2013,3/23/2013,3/26/2013,48,51,Phase 1
CDISCPILOT01,AE,01-701-1383,1383,2/4/2013,8/6/2013,2/4/2013,8/6/2013,,2013-08-06T12:00,,,701,72,YEARS,F,WHITE,NOT HISPANIC OR LATINO,Xan_Hi,Xanomeline High Dose,Xan_Hi,Xanomeline High Dose,USA,1/22/2013,-13,5,E08,APPLICATION SITE ERYTHEMA,APPLICATION SITE ERYTHEMA,,APPLICATION SITE ERYTHEMA,,HLT_0617,,HLGT_0152,,GENERAL DISORDERS AND ADMINISTRATION SITE CONDITIONS,,GENERAL DISORDERS AND ADMINISTRATION SITE CONDITIONS,,MILD,N,,POSSIBLE,NOT RECOVERED/NOT RESOLVED,N,N,N,N,N,N,N,4/30/2013,4/12/2013,,68,,Phase 1
CDISCPILOT01,AE,01-701-1383,1383,2/4/2013,8/6/2013,2/4/2013,8/6/2013,,2013-08-06T12:00,,,701,72,YEARS,F,WHITE,NOT HISPANIC OR LATINO,Xan_Hi,Xanomeline High Dose,Xan_Hi,Xanomeline High Dose,USA,1/22/2013,-13,6,E09,APPLICATION SITE IRRITATION,APPLICATION SITE BURNING,,APPLICATION SITE IRRITATION,,HLT_0061,,HLGT_0346,,GENERAL DISORDERS AND ADMINISTRATION SITE CONDITIONS,,GENERAL DISORDERS AND ADMINISTRATION SITE CONDITIONS,,MILD,N,,POSSIBLE,NOT RECOVERED/NOT RESOLVED,N,N,N,N,N,N,N,4/30/2013,4/12/2013,,68,,Phase 1
CDISCPILOT01,AE,01-701-1383,1383,2/4/2013,8/6/2013,2/4/2013,8/6/2013,,2013-08-06T12:00,,,701,72,YEARS,F,WHITE,NOT HISPANIC OR LATINO,Xan_Hi,Xanomeline High Dose,Xan_Hi,Xanomeline High Dose,USA,1/22/2013,-13,8,E09,APPLICATION SITE IRRITATION,APPLICATION SITE BURNING,,APPLICATION SITE IRRITATION,,HLT_0061,,HLGT_0346,,GENERAL DISORDERS AND ADMINISTRATION SITE CONDITIONS,,GENERAL DISORDERS AND ADMINISTRATION SITE CONDITIONS,,MODERATE,N,,POSSIBLE,NOT RECOVERED/NOT RESOLVED,N,N,N,N,N,N,N,5/30/2013,4/12/2013,,68,,Phase 1
CDISCPILOT01,AE,01-701-1383,1383,2/4/2013,8/6/2013,2/4/2013,8/6/2013,,2013-08-06T12:00,,,701,72,YEARS,F,WHITE,NOT HISPANIC OR LATINO,Xan_Hi,Xanomeline High Dose,Xan_Hi,Xanomeline High Dose,USA,1/22/2013,-13,2,E05,APPLICATION SITE PAIN,APPLICATION SITE PAIN,,APPLICATION SITE PAIN,,HLT_0342,,HLGT_0085,,GENERAL DISORDERS AND ADMINISTRATION SITE CONDITIONS,,GENERAL DISORDERS AND ADMINISTRATION SITE CONDITIONS,,MILD,N,,PROBABLE,RECOVERED/RESOLVED,N,N,N,N,N,N,N,2/19/2013,2/7/2013,2/7/2013,4,4,Phase 1
CDISCPILOT01,AE,01-701-1383,1383,2/4/2013,8/6/2013,2/4/2013,8/6/2013,,2013-08-06T12:00,,,701,72,YEARS,F,WHITE,NOT HISPANIC OR LATINO,Xan_Hi,Xanomeline High Dose,Xan_Hi,Xanomeline High Dose,USA,1/22/2013,-13,1,E04,APPLICATION SITE PRURITUS,APPLICATION SITE ITCHING,,APPLICATION SITE PRURITUS,,HLT_0317,,HLGT_0338,,GENERAL DISORDERS AND ADMINISTRATION SITE CONDITIONS,,GENERAL DISORDERS AND ADMINISTRATION SITE CONDITIONS,,MILD,N,,PROBABLE,RECOVERED/RESOLVED,N,N,N,N,N,N,N,2/19/2013,2/7/2013,2/7/2013,4,4,Phase 1
CDISCPILOT01,AE,01-701-1383,1383,2/4/2013,8/6/2013,2/4/2013,8/6/2013,,2013-08-06T12:00,,,701,72,YEARS,F,WHITE,NOT HISPANIC OR LATINO,Xan_Hi,Xanomeline High Dose,Xan_Hi,Xanomeline High Dose,USA,1/22/2013,-13,4,E07,APPLICATION SITE PRURITUS,APPLICATION SITE ITCHING,,APPLICATION SITE PRURITUS,,HLT_0317,,HLGT_0338,,GENERAL DISORDERS AND ADMINISTRATION SITE CONDITIONS,,GENERAL DISORDERS AND ADMINISTRATION SITE CONDITIONS,,MILD,N,,POSSIBLE,NOT RECOVERED/NOT RESOLVED,N,N,N,N,N,N,N,4/2/2013,3/23/2013,,48,,Phase 1
CDISCPILOT01,AE,01-701-1383,1383,2/4/2013,8/6/2013,2/4/2013,8/6/2013,,2013-08-06T12:00,,,701,72,YEARS,F,WHITE,NOT HISPANIC OR LATINO,Xan_Hi,Xanomeline High Dose,Xan_Hi,Xanomeline High Dose,USA,1/22/2013,-13,7,E07,APPLICATION SITE PRURITUS,APPLICATION SITE ITCHING,,APPLICATION SITE PRURITUS,,HLT_0317,,HLGT_0338,,GENERAL DISORDERS AND ADMINISTRATION SITE CONDITIONS,,GENERAL DISORDERS AND ADMINISTRATION SITE CONDITIONS,,MODERATE,N,,POSSIBLE,NOT RECOVERED/NOT RESOLVED,N,N,N,N,N,N,N,5/30/2013,3/23/2013,,48,,Phase 1
CDISCPILOT01,AE,01-701-1383,1383,2/4/2013,8/6/2013,2/4/2013,8/6/2013,,2013-08-06T12:00,,,701,72,YEARS,F,WHITE,NOT HISPANIC OR LATINO,Xan_Hi,Xanomeline High Dose,Xan_Hi,Xanomeline High Dose,USA,1/22/2013,-13,9,E10,APPLICATION SITE VESICLES,APPLICATION SITE BLISTER,,APPLICATION SITE VESICLES,,HLT_0180,,HLGT_0576,,GENERAL DISORDERS AND ADMINISTRATION SITE CONDITIONS,,GENERAL DISORDERS AND ADMINISTRATION SITE CONDITIONS,,MILD,N,,POSSIBLE,RECOVERED/RESOLVED,N,N,N,N,N,N,N,5/30/2013,5/7/2013,5/24/2013,93,110,Phase 1
CDISCPILOT01,AE,01-701-1383,1383,2/4/2013,8/6/2013,2/4/2013,8/6/2013,,2013-08-06T12:00,,,701,72,YEARS,F,WHITE,NOT HISPANIC OR LATINO,Xan_Hi,Xanomeline High Dose,Xan_Hi,Xanomeline High Dose,USA,1/22/2013,-13,10,E11,CHEST DISCOMFORT,CHEST PRESSURE,,CHEST DISCOMFORT,,HLT_0593,,HLGT_0441,,GENERAL DISORDERS AND ADMINISTRATION SITE CONDITIONS,,GENERAL DISORDERS AND ADMINISTRATION SITE CONDITIONS,,MILD,N,,NONE,RECOVERED/RESOLVED,N,N,N,N,N,N,N,6/25/2013,6/24/2013,6/24/2013,141,141,Phase 2
CDISCPILOT01,AE,01-701-1383,1383,2/4/2013,8/6/2013,2/4/2013,8/6/2013,,2013-08-06T12:00,,,701,72,YEARS,F,WHITE,NOT HISPANIC OR LATINO,Xan_Hi,Xanomeline High Dose,Xan_Hi,Xanomeline High Dose,USA,1/22/2013,-13,12,E13,COUGH,COUGH,,COUGH,,HLT_0701,,HLGT_0280,,"RESPIRATORY, THORACIC AND MEDIASTINAL DISORDERS",,"RESPIRATORY, THORACIC AND MEDIASTINAL DISORDERS",,MODERATE,N,,NONE,RECOVERED/RESOLVED,N,N,N,N,N,N,N,7/30/2013,7/17/2013,7/26/2013,164,173,Phase 2
CDISCPILOT01,AE,01-701-1383,1383,2/4/2013,8/6/2013,2/4/2013,8/6/2013,,2013-08-06T12:00,,,701,72,YEARS,F,WHITE,NOT HISPANIC OR LATINO,Xan_Hi,Xanomeline High Dose,Xan_Hi,Xanomeline High Dose,USA,1/22/2013,-13,11,E12,HEADACHE,FULLNESS HEAD,,HEADACHE,,HLT_0064,,HLGT_0344,,NERVOUS SYSTEM DISORDERS,,NERVOUS SYSTEM DISORDERS,,MILD,N,,NONE,RECOVERED/RESOLVED,N,N,N,N,N,N,N,6/25/2013,6/24/2013,6/24/2013,141,141,Phase 2
CDISCPILOT01,AE,01-701-1387,1387,3/12/2014,3/25/2014,3/12/2014,3/25/2014,,8/27/2014,,,701,87,YEARS,F,WHITE,NOT HISPANIC OR LATINO,Pbo,Placebo,Pbo,Placebo,USA,2/23/2014,-17,1,E08,DIARRHOEA,DIARRHEA,,DIARRHOEA,,HLT_0148,,HLGT_0588,,GASTROINTESTINAL DISORDERS,,GASTROINTESTINAL DISORDERS,,MILD,N,,REMOTE,RECOVERED/RESOLVED,N,N,N,N,N,N,N,3/25/2014,3/18/2014,3/18/2014,7,7,Phase 1
CDISCPILOT01,AE,01-701-1387,1387,3/12/2014,3/25/2014,3/12/2014,3/25/2014,,8/27/2014,,,701,87,YEARS,F,WHITE,NOT HISPANIC OR LATINO,Pbo,Placebo,Pbo,Placebo,USA,2/23/2014,-17,2,E09,HYPERHIDROSIS,SWEATING,,HYPERHIDROSIS,,HLT_0587,,HLGT_0005,,SKIN AND SUBCUTANEOUS TISSUE DISORDERS,,SKIN AND SUBCUTANEOUS TISSUE DISORDERS,,MILD,N,,REMOTE,RECOVERED/RESOLVED,N,N,N,N,N,N,N,3/25/2014,3/18/2014,3/18/2014,7,7,Phase 1
CDISCPILOT01,AE,01-701-1392,1392,10/28/2012,4/28/2013,10/28/2012,4/28/2013,,2013-04-28T11:30,,,701,78,YEARS,M,WHITE,NOT HISPANIC OR LATINO,Pbo,Placebo,Pbo,Placebo,USA,10/17/2012,-11,1,E04,UPPER RESPIRATORY TRACT INFECTION,UPPER RESPIRATORY INFECTION,,UPPER RESPIRATORY TRACT INFECTION,,HLT_0520,,HLGT_0489,,INFECTIONS AND INFESTATIONS,,INFECTIONS AND INFESTATIONS,,MILD,N,,REMOTE,NOT RECOVERED/NOT RESOLVED,N,N,N,N,N,N,N,3/17/2013,3/16/2013,3/21/2013,140,145,Phase 2
CDISCPILOT01,AE,01-701-1392,1392,10/28/2012,4/28/2013,10/28/2012,4/28/2013,,2013-04-28T11:30,,,701,78,YEARS,M,WHITE,NOT HISPANIC OR LATINO,Pbo,Placebo,Pbo,Placebo,USA,10/17/2012,-11,2,E04,UPPER RESPIRATORY TRACT INFECTION,UPPER RESPIRATORY INFECTION,,UPPER RESPIRATORY TRACT INFECTION,,HLT_0520,,HLGT_0489,,INFECTIONS AND INFESTATIONS,,INFECTIONS AND INFESTATIONS,,MILD,N,,REMOTE,RECOVERED/RESOLVED,N,N,N,N,N,N,N,4/15/2013,3/16/2013,3/21/2013,140,145,Phase 2
CDISCPILOT01,AE,01-701-1415,1415,9/23/2013,3/24/2014,9/23/2013,3/24/2014,,2014-03-24T12:34,,,701,85,YEARS,M,WHITE,NOT HISPANIC OR LATINO,Pbo,Placebo,Pbo,Placebo,USA,9/15/2013,-8,6,E12,DIARRHOEA,DIARRHEA,,DIARRHOEA,,HLT_0148,,HLGT_0588,,GASTROINTESTINAL DISORDERS,,GASTROINTESTINAL DISORDERS,,MILD,N,,NONE,RECOVERED/RESOLVED,N,N,N,N,N,N,N,3/10/2014,3/9/2014,3/9/2014,168,168,Phase 2
CDISCPILOT01,AE,01-701-1415,1415,9/23/2013,3/24/2014,9/23/2013,3/24/2014,,2014-03-24T12:34,,,701,85,YEARS,M,WHITE,NOT HISPANIC OR LATINO,Pbo,Placebo,Pbo,Placebo,USA,9/15/2013,-8,3,E10,MICTURITION URGENCY,URINARY URGENCY,,MICTURITION URGENCY,,HLT_0294,,HLGT_0483,,RENAL AND URINARY DISORDERS,,RENAL AND URINARY DISORDERS,,MILD,N,,NONE,NOT RECOVERED/NOT RESOLVED,N,N,N,N,N,N,N,12/21/2013,12/2/2013,,71,,Phase 1
CDISCPILOT01,AE,01-701-1415,1415,9/23/2013,3/24/2014,9/23/2013,3/24/2014,,2014-03-24T12:34,,,701,85,YEARS,M,WHITE,NOT HISPANIC OR LATINO,Pbo,Placebo,Pbo,Placebo,USA,9/15/2013,-8,1,E09,UPPER RESPIRATORY TRACT INFECTION,UPPER RESPIRATORY INFECTION,,UPPER RESPIRATORY TRACT INFECTION,,HLT_0520,,HLGT_0489,,INFECTIONS AND INFESTATIONS,,INFECTIONS AND INFESTATIONS,,MILD,N,,NONE,NOT RECOVERED/NOT RESOLVED,N,N,N,N,N,N,N,10/22/2013,10/21/2013,11/4/2013,29,43,Phase 1
CDISCPILOT01,AE,01-701-1415,1415,9/23/2013,3/24/2014,9/23/2013,3/24/2014,,2014-03-24T12:34,,,701,85,YEARS,M,WHITE,NOT HISPANIC OR LATINO,Pbo,Placebo,Pbo,Placebo,USA,9/15/2013,-8,2,E09,UPPER RESPIRATORY TRACT INFECTION,UPPER RESPIRATORY INFECTION,,UPPER RESPIRATORY TRACT INFECTION,,HLT_0520,,HLGT_0489,,INFECTIONS AND INFESTATIONS,,INFECTIONS AND INFESTATIONS,,MILD,N,,NONE,RECOVERED/RESOLVED,N,N,N,N,N,N,N,11/21/2013,10/21/2013,11/4/2013,29,43,Phase 1
CDISCPILOT01,AE,01-701-1415,1415,9/23/2013,3/24/2014,9/23/2013,3/24/2014,,2014-03-24T12:34,,,701,85,YEARS,M,WHITE,NOT HISPANIC OR LATINO,Pbo,Placebo,Pbo,Placebo,USA,9/15/2013,-8,4,E11,UPPER RESPIRATORY TRACT INFECTION,UPPER RESPIRATORY INFECTION,,UPPER RESPIRATORY TRACT INFECTION,,HLT_0520,,HLGT_0489,,INFECTIONS AND INFESTATIONS,,INFECTIONS AND INFESTATIONS,,MILD,N,,REMOTE,NOT RECOVERED/NOT RESOLVED,N,N,N,N,N,N,N,2/10/2014,1/21/2014,2/10/2014,121,141,Phase 2
CDISCPILOT01,AE,01-701-1415,1415,9/23/2013,3/24/2014,9/23/2013,3/24/2014,,2014-03-24T12:34,,,701,85,YEARS,M,WHITE,NOT HISPANIC OR LATINO,Pbo,Placebo,Pbo,Placebo,USA,9/15/2013,-8,5,E11,UPPER RESPIRATORY TRACT INFECTION,UPPER RESPIRATORY INFECTION,,UPPER RESPIRATORY TRACT INFECTION,,HLT_0520,,HLGT_0489,,INFECTIONS AND INFESTATIONS,,INFECTIONS AND INFESTATIONS,,MILD,N,,REMOTE,RECOVERED/RESOLVED,N,N,N,N,N,N,N,3/10/2014,1/21/2014,2/10/2014,121,141,Phase 2
CDISCPILOT01,DM,01-701-1429,1429,3/19/2013,4/30/2013,3/19/2013,4/30/2013,,2013-04-30T12:22,,,701,84,YEARS,F,WHITE,NOT HISPANIC OR LATINO,Xan_Lo,Xanomeline Low Dose,Xan_Lo,Xanomeline Low Dose,USA,2/25/2013,-22,,,,,,,,,,,,,,,,,,,,,,,,,,,,,,,,,Phase 1
CDISCPILOT01,DM,01-701-1440,1440,8/8/2013,2/5/2014,8/8/2013,2/5/2014,,2014-02-05T11:25,,,701,70,YEARS,M,WHITE,NOT HISPANIC OR LATINO,Pbo,Placebo,Pbo,Placebo,USA,7/24/2013,-15,,,,,,,,,,,,,,,,,,,,,,,,,,,,,,,,,Phase 1
CDISCPILOT01,AE,01-701-1442,1442,10/26/2013,4/26/2014,10/26/2013,4/26/2014,,2014-04-26T10:00,,,701,57,YEARS,F,BLACK OR AFRICAN AMERICAN,NOT HISPANIC OR LATINO,Xan_Lo,Xanomeline Low Dose,Xan_Lo,Xanomeline Low Dose,USA,10/17/2013,-9,1,E03,APPLICATION SITE PRURITUS,APPLICATION SITE ITCHING,,APPLICATION SITE PRURITUS,,HLT_0317,,HLGT_0338,,GENERAL DISORDERS AND ADMINISTRATION SITE CONDITIONS,,GENERAL DISORDERS AND ADMINISTRATION SITE CONDITIONS,,MILD,N,,PROBABLE,NOT RECOVERED/NOT RESOLVED,N,N,N,N,N,N,N,1/18/2014,1/10/2014,,77,,Phase 1
CDISCPILOT01,AE,01-701-1444,1444,1/5/2013,2/13/2013,1/5/2013,2/12/2013,,6/20/2013,,,701,63,YEARS,M,WHITE,HISPANIC OR LATINO,Xan_Hi,Xanomeline High Dose,Xan_Hi,Xanomeline High Dose,USA,12/31/2012,-5,1,E11,APPLICATION SITE ERYTHEMA,APPLICATION SITE ERYTHEMA,,APPLICATION SITE ERYTHEMA,,HLT_0617,,HLGT_0152,,GENERAL DISORDERS AND ADMINISTRATION SITE CONDITIONS,,GENERAL DISORDERS AND ADMINISTRATION SITE CONDITIONS,,MILD,N,,POSSIBLE,NOT RECOVERED/NOT RESOLVED,N,N,N,N,N,N,N,1/31/2013,1/19/2013,,15,,Phase 1
CDISCPILOT01,AE,01-701-1444,1444,1/5/2013,2/13/2013,1/5/2013,2/12/2013,,6/20/2013,,,701,63,YEARS,M,WHITE,HISPANIC OR LATINO,Xan_Hi,Xanomeline High Dose,Xan_Hi,Xanomeline High Dose,USA,12/31/2012,-5,4,E11,APPLICATION SITE ERYTHEMA,APPLICATION SITE ERYTHEMA,,APPLICATION SITE ERYTHEMA,,HLT_0617,,HLGT_0152,,GENERAL DISORDERS AND ADMINISTRATION SITE CONDITIONS,,GENERAL DISORDERS AND ADMINISTRATION SITE CONDITIONS,,MODERATE,N,,POSSIBLE,NOT RECOVERED/NOT RESOLVED,N,N,N,N,N,N,N,2/13/2013,1/19/2013,,15,,Phase 1
CDISCPILOT01,AE,01-701-1444,1444,1/5/2013,2/13/2013,1/5/2013,2/12/2013,,6/20/2013,,,701,63,YEARS,M,WHITE,HISPANIC OR LATINO,Xan_Hi,Xanomeline High Dose,Xan_Hi,Xanomeline High Dose,USA,12/31/2012,-5,6,E15,APPLICATION SITE IRRITATION,APPLICATION SITE BURNING,,APPLICATION SITE IRRITATION,,HLT_0061,,HLGT_0346,,GENERAL DISORDERS AND ADMINISTRATION SITE CONDITIONS,,GENERAL DISORDERS AND ADMINISTRATION SITE CONDITIONS,,MODERATE,N,,PROBABLE,NOT RECOVERED/NOT RESOLVED,N,N,N,N,N,N,N,2/13/2013,2/4/2013,,31,,Phase 1
CDISCPILOT01,AE,01-701-1444,1444,1/5/2013,2/13/2013,1/5/2013,2/12/2013,,6/20/2013,,,701,63,YEARS,M,WHITE,HISPANIC OR LATINO,Xan_Hi,Xanomeline High Dose,Xan_Hi,Xanomeline High Dose,USA,12/31/2012,-5,2,E12,APPLICATION SITE PRURITUS,APPLICATION SITE ITCHING,,APPLICATION SITE PRURITUS,,HLT_0317,,HLGT_0338,,GENERAL DISORDERS AND ADMINISTRATION SITE CONDITIONS,,GENERAL DISORDERS AND ADMINISTRATION SITE CONDITIONS,,MILD,N,,PROBABLE,NOT RECOVERED/NOT RESOLVED,N,N,N,N,N,N,N,1/31/2013,1/19/2013,,15,,Phase 1
CDISCPILOT01,AE,01-701-1444,1444,1/5/2013,2/13/2013,1/5/2013,2/12/2013,,6/20/2013,,,701,63,YEARS,M,WHITE,HISPANIC OR LATINO,Xan_Hi,Xanomeline High Dose,Xan_Hi,Xanomeline High Dose,USA,12/31/2012,-5,5,E12,APPLICATION SITE PRURITUS,APPLICATION SITE ITCHING,,APPLICATION SITE PRURITUS,,HLT_0317,,HLGT_0338,,GENERAL DISORDERS AND ADMINISTRATION SITE CONDITIONS,,GENERAL DISORDERS AND ADMINISTRATION SITE CONDITIONS,,MODERATE,N,,PROBABLE,NOT RECOVERED/NOT RESOLVED,N,N,N,N,N,N,N,2/13/2013,1/19/2013,,15,,Phase 1
CDISCPILOT01,AE,01-701-1444,1444,1/5/2013,2/13/2013,1/5/2013,2/12/2013,,6/20/2013,,,701,63,YEARS,M,WHITE,HISPANIC OR LATINO,Xan_Hi,Xanomeline High Dose,Xan_Hi,Xanomeline High Dose,USA,12/31/2012,-5,7,E16,APPLICATION SITE VESICLES,APPLICATION SITE BLISTER,,APPLICATION SITE VESICLES,,HLT_0180,,HLGT_0576,,GENERAL DISORDERS AND ADMINISTRATION SITE CONDITIONS,,GENERAL DISORDERS AND ADMINISTRATION SITE CONDITIONS,,MODERATE,N,,PROBABLE,NOT RECOVERED/NOT RESOLVED,N,N,N,N,N,N,N,2/13/2013,2/4/2013,,31,,Phase 1
CDISCPILOT01,AE,01-701-1444,1444,1/5/2013,2/13/2013,1/5/2013,2/12/2013,,6/20/2013,,,701,63,YEARS,M,WHITE,HISPANIC OR LATINO,Xan_Hi,Xanomeline High Dose,Xan_Hi,Xanomeline High Dose,USA,12/31/2012,-5,8,E14,PARAESTHESIA,TINGLING,,PARAESTHESIA,,HLT_0481,,HLGT_0534,,NERVOUS SYSTEM DISORDERS,,NERVOUS SYSTEM DISORDERS,,MILD,N,,NONE,RECOVERED/RESOLVED,N,N,N,N,N,N,N,2/13/2013,2/8/2013,2/8/2013,35,35,Phase 1
CDISCPILOT01,AE,01-701-1444,1444,1/5/2013,2/13/2013,1/5/2013,2/12/2013,,6/20/2013,,,701,63,YEARS,M,WHITE,HISPANIC OR LATINO,Xan_Hi,Xanomeline High Dose,Xan_Hi,Xanomeline High Dose,USA,12/31/2012,-5,3,E13,SALIVARY HYPERSECRETION,HYPERSALIVATION,,SALIVARY HYPERSECRETION,,HLT_0374,,HLGT_0488,,GASTROINTESTINAL DISORDERS,,GASTROINTESTINAL DISORDERS,,MILD,N,,POSSIBLE,NOT RECOVERED/NOT RESOLVED,N,N,N,N,N,N,N,1/31/2013,1/19/2013,,15,,Phase 1
CDISCPILOT01,AE,01-702-1082,1082,7/26/2013,11/17/2013,7/26/2013,10/13/2013,,2013-11-17T12:20,,,702,84,YEARS,F,WHITE,NOT HISPANIC OR LATINO,Xan_Lo,Xanomeline Low Dose,Xan_Lo,Xanomeline Low Dose,USA,7/3/2013,-23,9,E07,APPLICATION SITE IRRITATION,APPLICATION SITE IRRITATION,,APPLICATION SITE IRRITATION,,HLT_0061,,HLGT_0346,,GENERAL DISORDERS AND ADMINISTRATION SITE CONDITIONS,,GENERAL DISORDERS AND ADMINISTRATION SITE CONDITIONS,,MILD,N,,PROBABLE,RECOVERED/RESOLVED,N,N,N,N,N,N,N,9/28/2013,9/9/2013,9/24/2013,46,61,Phase 1
CDISCPILOT01,AE,01-702-1082,1082,7/26/2013,11/17/2013,7/26/2013,10/13/2013,,2013-11-17T12:20,,,702,84,YEARS,F,WHITE,NOT HISPANIC OR LATINO,Xan_Lo,Xanomeline Low Dose,Xan_Lo,Xanomeline Low Dose,USA,7/3/2013,-23,2,E03,NEUTROPHIL COUNT INCREASED,NEUTROPHIL COUNT INCREASED,,NEUTROPHIL COUNT INCREASED,,HLT_0326,,HLGT_0625,,INVESTIGATIONS,,INVESTIGATIONS,,MILD,N,,NONE,NOT RECOVERED/NOT RESOLVED,N,N,N,N,N,N,N,7/24/2013,7/7/2013,7/26/2013,-19,1,Phase 1
CDISCPILOT01,AE,01-702-1082,1082,7/26/2013,11/17/2013,7/26/2013,10/13/2013,,2013-11-17T12:20,,,702,84,YEARS,F,WHITE,NOT HISPANIC OR LATINO,Xan_Lo,Xanomeline Low Dose,Xan_Lo,Xanomeline Low Dose,USA,7/3/2013,-23,6,E03,NEUTROPHIL COUNT INCREASED,NEUTROPHIL COUNT INCREASED,,NEUTROPHIL COUNT INCREASED,,HLT_0326,,HLGT_0625,,INVESTIGATIONS,,INVESTIGATIONS,,MILD,N,,NONE,RECOVERED/RESOLVED,N,N,N,N,N,N,N,8/8/2013,7/7/2013,7/26/2013,-19,1,Phase 1
CDISCPILOT01,AE,01-702-1082,1082,7/26/2013,11/17/2013,7/26/2013,10/13/2013,,2013-11-17T12:20,,,702,84,YEARS,F,WHITE,NOT HISPANIC OR LATINO,Xan_Lo,Xanomeline Low Dose,Xan_Lo,Xanomeline Low Dose,USA,7/3/2013,-23,7,E06,RECTAL HAEMORRHAGE,RECTAL BLEEDING,,RECTAL HAEMORRHAGE,,HLT_0353,,HLGT_0755,,GASTROINTESTINAL DISORDERS,,GASTROINTESTINAL DISORDERS,,MILD,N,,NONE,NOT RECOVERED/NOT RESOLVED,N,N,N,N,N,N,N,9/6/2013,9/2/2013,9/6/2013,39,43,Phase 1
CDISCPILOT01,AE,01-702-1082,1082,7/26/2013,11/17/2013,7/26/2013,10/13/2013,,2013-11-17T12:20,,,702,84,YEARS,F,WHITE,NOT HISPANIC OR LATINO,Xan_Lo,Xanomeline Low Dose,Xan_Lo,Xanomeline Low Dose,USA,7/3/2013,-23,8,E06,RECTAL HAEMORRHAGE,RECTAL BLEEDING,,RECTAL HAEMORRHAGE,,HLT_0353,,HLGT_0755,,GASTROINTESTINAL DISORDERS,,GASTROINTESTINAL DISORDERS,,MILD,N,,NONE,RECOVERED/RESOLVED,N,N,N,N,N,N,N,9/28/2013,9/2/2013,9/6/2013,39,43,Phase 1
CDISCPILOT01,AE,01-702-1082,1082,7/26/2013,11/17/2013,7/26/2013,10/13/2013,,2013-11-17T12:20,,,702,84,YEARS,F,WHITE,NOT HISPANIC OR LATINO,Xan_Lo,Xanomeline Low Dose,Xan_Lo,Xanomeline Low Dose,USA,7/3/2013,-23,10,E08,SKIN IRRITATION,SKIN IRRITATION,,SKIN IRRITATION,,HLT_0583,,HLGT_0384,,SKIN AND SUBCUTANEOUS TISSUE DISORDERS,,SKIN AND SUBCUTANEOUS TISSUE DISORDERS,,MODERATE,N,,PROBABLE,RECOVERED/RESOLVED,N,N,N,N,N,N,N,11/17/2013,10/12/2013,10/31/2013,79,98,Phase 1
CDISCPILOT01,AE,01-702-1082,1082,7/26/2013,11/17/2013,7/26/2013,10/13/2013,,2013-11-17T12:20,,,702,84,YEARS,F,WHITE,NOT HISPANIC OR LATINO,Xan_Lo,Xanomeline Low Dose,Xan_Lo,Xanomeline Low Dose,USA,7/3/2013,-23,3,E04,URINE ANALYSIS ABNORMAL,URINE ANALYSIS ABNORMAL,,URINE ANALYSIS ABNORMAL,,HLT_0783,,HLGT_0295,,INVESTIGATIONS,,INVESTIGATIONS,,MILD,N,,NONE,NOT RECOVERED/NOT RESOLVED,N,N,N,N,N,N,N,7/24/2013,7/7/2013,7/24/2013,-19,-2,Phase 1
CDISCPILOT01,AE,01-702-1082,1082,7/26/2013,11/17/2013,7/26/2013,10/13/2013,,2013-11-17T12:20,,,702,84,YEARS,F,WHITE,NOT HISPANIC OR LATINO,Xan_Lo,Xanomeline Low Dose,Xan_Lo,Xanomeline Low Dose,USA,7/3/2013,-23,4,E04,URINE ANALYSIS ABNORMAL,URINE ANALYSIS ABNORMAL,,URINE ANALYSIS ABNORMAL,,HLT_0783,,HLGT_0295,,INVESTIGATIONS,,INVESTIGATIONS,,MILD,N,,NONE,RECOVERED/RESOLVED,N,N,N,N,N,N,N,7/26/2013,7/7/2013,7/24/2013,-19,-2,Phase 1
CDISCPILOT01,AE,01-702-1082,1082,7/26/2013,11/17/2013,7/26/2013,10/13/2013,,2013-11-17T12:20,,,702,84,YEARS,F,WHITE,NOT HISPANIC OR LATINO,Xan_Lo,Xanomeline Low Dose,Xan_Lo,Xanomeline Low Dose,USA,7/3/2013,-23,1,E02,WHITE BLOOD CELL COUNT INCREASED,WBC INCREASED,,WHITE BLOOD CELL COUNT INCREASED,,HLT_0417,,HLGT_0465,,INVESTIGATIONS,,INVESTIGATIONS,,MILD,N,,NONE,NOT RECOVERED/NOT RESOLVED,N,N,N,N,N,N,N,7/24/2013,7/7/2013,7/26/2013,-19,1,Phase 1
CDISCPILOT01,AE,01-702-1082,1082,7/26/2013,11/17/2013,7/26/2013,10/13/2013,,2013-11-17T12:20,,,702,84,YEARS,F,WHITE,NOT HISPANIC OR LATINO,Xan_Lo,Xanomeline Low Dose,Xan_Lo,Xanomeline Low Dose,USA,7/3/2013,-23,5,E02,WHITE BLOOD CELL COUNT INCREASED,WBC INCREASED,,WHITE BLOOD CELL COUNT INCREASED,,HLT_0417,,HLGT_0465,,INVESTIGATIONS,,INVESTIGATIONS,,MILD,N,,NONE,RECOVERED/RESOLVED,N,N,N,N,N,N,N,8/8/2013,7/7/2013,7/26/2013,-19,1,Phase 1
CDISCPILOT01,AE,01-703-1042,1042,3/2/2013,8/31/2013,3/2/2013,8/31/2013,,2013-08-31T11:00,,,703,64,YEARS,M,WHITE,NOT HISPANIC OR LATINO,Pbo,Placebo,Pbo,Placebo,USA,2/23/2013,-7,1,E04,DIARRHOEA,DIARRHEA,,DIARRHOEA,,HLT_0148,,HLGT_0588,,GASTROINTESTINAL DISORDERS,,GASTROINTESTINAL DISORDERS,,MILD,N,,POSSIBLE,RECOVERED/RESOLVED,N,N,N,N,N,N,N,3/14/2013,3/4/2013,3/5/2013,3,4,Phase 1
CDISCPILOT01,AE,01-703-1042,1042,3/2/2013,8/31/2013,3/2/2013,8/31/2013,,2013-08-31T11:00,,,703,64,YEARS,M,WHITE,NOT HISPANIC OR LATINO,Pbo,Placebo,Pbo,Placebo,USA,2/23/2013,-7,2,E05,INSOMNIA,INSOMNIA,,INSOMNIA,,HLT_0297,,HLGT_0469,,PSYCHIATRIC DISORDERS,,PSYCHIATRIC DISORDERS,,MILD,N,,REMOTE,RECOVERED/RESOLVED,N,N,N,N,N,N,N,3/14/2013,3/5/2013,3/6/2013,4,5,Phase 1
CDISCPILOT01,AE,01-703-1076,1076,10/25/2013,12/24/2013,10/25/2013,12/24/2013,,1/21/2014,,,703,69,YEARS,M,WHITE,NOT HISPANIC OR LATINO,Xan_Hi,Xanomeline High Dose,Xan_Hi,Xanomeline High Dose,USA,10/17/2013,-8,5,E09,APPLICATION SITE DERMATITIS,APPLICATION SITE RASH,,APPLICATION SITE DERMATITIS,,HLT_0343,,HLGT_0241,,GENERAL DISORDERS AND ADMINISTRATION SITE CONDITIONS,,GENERAL DISORDERS AND ADMINISTRATION SITE CONDITIONS,,MILD,N,,PROBABLE,NOT RECOVERED/NOT RESOLVED,N,N,N,N,N,N,N,12/4/2013,11/23/2013,,30,,Phase 1
CDISCPILOT01,AE,01-703-1076,1076,10/25/2013,12/24/2013,10/25/2013,12/24/2013,,1/21/2014,,,703,69,YEARS,M,WHITE,NOT HISPANIC OR LATINO,Xan_Hi,Xanomeline High Dose,Xan_Hi,Xanomeline High Dose,USA,10/17/2013,-8,4,E08,APPLICATION SITE PRURITUS,APPLICATION SITE ITCHING,,APPLICATION SITE PRURITUS,,HLT_0317,,HLGT_0338,,GENERAL DISORDERS AND ADMINISTRATION SITE CONDITIONS,,GENERAL DISORDERS AND ADMINISTRATION SITE CONDITIONS,,MILD,N,,PROBABLE,NOT RECOVERED/NOT RESOLVED,N,N,N,N,N,N,N,12/4/2013,11/23/2013,,30,,Phase 1
CDISCPILOT01,AE,01-703-1076,1076,10/25/2013,12/24/2013,10/25/2013,12/24/2013,,1/21/2014,,,703,69,YEARS,M,WHITE,NOT HISPANIC OR LATINO,Xan_Hi,Xanomeline High Dose,Xan_Hi,Xanomeline High Dose,USA,10/17/2013,-8,7,E08,APPLICATION SITE PRURITUS,APPLICATION SITE ITCHING,,APPLICATION SITE PRURITUS,,HLT_0317,,HLGT_0338,,GENERAL DISORDERS AND ADMINISTRATION SITE CONDITIONS,,GENERAL DISORDERS AND ADMINISTRATION SITE CONDITIONS,,MODERATE,N,,PROBABLE,NOT RECOVERED/NOT RESOLVED,N,N,N,N,N,N,N,12/17/2013,11/23/2013,,30,,Phase 1
CDISCPILOT01,AE,01-703-1076,1076,10/25/2013,12/24/2013,10/25/2013,12/24/2013,,1/21/2014,,,703,69,YEARS,M,WHITE,NOT HISPANIC OR LATINO,Xan_Hi,Xanomeline High Dose,Xan_Hi,Xanomeline High Dose,USA,10/17/2013,-8,2,E01,BENIGN PROSTATIC HYPERPLASIA,BENIGN PROSTATIC HYPERTROPHY,,BENIGN PROSTATIC HYPERPLASIA,,HLT_0215,,HLGT_0568,,REPRODUCTIVE SYSTEM AND BREAST DISORDERS,,REPRODUCTIVE SYSTEM AND BREAST DISORDERS,,MODERATE,N,,NONE,NOT RECOVERED/NOT RESOLVED,N,N,N,N,N,N,N,11/20/2013,11/20/2013,,27,,Phase 1
CDISCPILOT01,AE,01-703-1076,1076,10/25/2013,12/24/2013,10/25/2013,12/24/2013,,1/21/2014,,,703,69,YEARS,M,WHITE,NOT HISPANIC OR LATINO,Xan_Hi,Xanomeline High Dose,Xan_Hi,Xanomeline High Dose,USA,10/17/2013,-8,1,E02,BIOPSY PROSTATE,BIOPSY OF PROSTATE,,BIOPSY PROSTATE,,HLT_0553,,HLGT_0725,,INVESTIGATIONS,,INVESTIGATIONS,,MODERATE,N,,NONE,RECOVERED/RESOLVED,N,N,N,N,N,N,N,11/20/2013,11/16/2013,11/16/2013,23,23,Phase 1
CDISCPILOT01,AE,01-703-1076,1076,10/25/2013,12/24/2013,10/25/2013,12/24/2013,,1/21/2014,,,703,69,YEARS,M,WHITE,NOT HISPANIC OR LATINO,Xan_Hi,Xanomeline High Dose,Xan_Hi,Xanomeline High Dose,USA,10/17/2013,-8,3,E05,HYPERCHOLESTEROLAEMIA,HYPERCHOLESTEROLEMIA,,HYPERCHOLESTEROLAEMIA,,HLT_0025,,HLGT_0703,,METABOLISM AND NUTRITION DISORDERS,,METABOLISM AND NUTRITION DISORDERS,,MODERATE,N,,NONE,NOT RECOVERED/NOT RESOLVED,N,N,N,N,N,N,N,12/4/2013,2007,,,,Phase 1
CDISCPILOT01,AE,01-703-1076,1076,10/25/2013,12/24/2013,10/25/2013,12/24/2013,,1/21/2014,,,703,69,YEARS,M,WHITE,NOT HISPANIC OR LATINO,Xan_Hi,Xanomeline High Dose,Xan_Hi,Xanomeline High Dose,USA,10/17/2013,-8,6,E07,HYPERHIDROSIS,SWEATING,,HYPERHIDROSIS,,HLT_0587,,HLGT_0005,,SKIN AND SUBCUTANEOUS TISSUE DISORDERS,,SKIN AND SUBCUTANEOUS TISSUE DISORDERS,,MILD,N,,POSSIBLE,NOT RECOVERED/NOT RESOLVED,N,N,N,N,N,N,N,12/4/2013,11/25/2013,,32,,Phase 1
CDISCPILOT01,AE,01-703-1086,1086,9/2/2012,12/24/2012,9/2/2012,12/4/2012,,3/26/2013,,,703,71,YEARS,M,WHITE,NOT HISPANIC OR LATINO,Xan_Lo,Xanomeline Low Dose,Xan_Lo,Xanomeline Low Dose,USA,8/22/2012,-11,1,E01,APPLICATION SITE IRRITATION,APPLICATION SITE IRRITATION,,APPLICATION SITE IRRITATION,,HLT_0061,,HLGT_0346,,GENERAL DISORDERS AND ADMINISTRATION SITE CONDITIONS,,GENERAL DISORDERS AND ADMINISTRATION SITE CONDITIONS,,MILD,N,,PROBABLE,NOT RECOVERED/NOT RESOLVED,N,N,N,N,N,N,N,9/16/2012,9/13/2012,1/2/2013,12,123,Phase 1
CDISCPILOT01,AE,01-703-1086,1086,9/2/2012,12/24/2012,9/2/2012,12/4/2012,,3/26/2013,,,703,71,YEARS,M,WHITE,NOT HISPANIC OR LATINO,Xan_Lo,Xanomeline Low Dose,Xan_Lo,Xanomeline Low Dose,USA,8/22/2012,-11,2,E01,APPLICATION SITE IRRITATION,APPLICATION SITE IRRITATION,,APPLICATION SITE IRRITATION,,HLT_0061,,HLGT_0346,,GENERAL DISORDERS AND ADMINISTRATION SITE CONDITIONS,,GENERAL DISORDERS AND ADMINISTRATION SITE CONDITIONS,,MODERATE,N,,PROBABLE,NOT RECOVERED/NOT RESOLVED,N,N,N,N,N,N,N,9/30/2012,9/13/2012,1/2/2013,12,123,Phase 1
CDISCPILOT01,AE,01-703-1086,1086,9/2/2012,12/24/2012,9/2/2012,12/4/2012,,3/26/2013,,,703,71,YEARS,M,WHITE,NOT HISPANIC OR LATINO,Xan_Lo,Xanomeline Low Dose,Xan_Lo,Xanomeline Low Dose,USA,8/22/2012,-11,3,E01,APPLICATION SITE IRRITATION,APPLICATION SITE IRRITATION,,APPLICATION SITE IRRITATION,,HLT_0061,,HLGT_0346,,GENERAL DISORDERS AND ADMINISTRATION SITE CONDITIONS,,GENERAL DISORDERS AND ADMINISTRATION SITE CONDITIONS,,SEVERE,N,,PROBABLE,NOT RECOVERED/NOT RESOLVED,N,N,N,N,N,N,N,10/13/2012,9/13/2012,1/2/2013,12,123,Phase 1
CDISCPILOT01,AE,01-703-1086,1086,9/2/2012,12/24/2012,9/2/2012,12/4/2012,,3/26/2013,,,703,71,YEARS,M,WHITE,NOT HISPANIC OR LATINO,Xan_Lo,Xanomeline Low Dose,Xan_Lo,Xanomeline Low Dose,USA,8/22/2012,-11,6,E01,APPLICATION SITE IRRITATION,APPLICATION SITE IRRITATION,,APPLICATION SITE IRRITATION,,HLT_0061,,HLGT_0346,,GENERAL DISORDERS AND ADMINISTRATION SITE CONDITIONS,,GENERAL DISORDERS AND ADMINISTRATION SITE CONDITIONS,,MILD,N,,PROBABLE,RECOVERED/RESOLVED,N,N,N,N,N,N,N,3/26/2013,9/13/2012,1/2/2013,12,123,Phase 1
CDISCPILOT01,AE,01-703-1086,1086,9/2/2012,12/24/2012,9/2/2012,12/4/2012,,3/26/2013,,,703,71,YEARS,M,WHITE,NOT HISPANIC OR LATINO,Xan_Lo,Xanomeline Low Dose,Xan_Lo,Xanomeline Low Dose,USA,8/22/2012,-11,4,E02,CHILLS,CHILLS,,CHILLS,,HLT_0586,,HLGT_0161,,GENERAL DISORDERS AND ADMINISTRATION SITE CONDITIONS,,GENERAL DISORDERS AND ADMINISTRATION SITE CONDITIONS,,MILD,N,,POSSIBLE,NOT RECOVERED/NOT RESOLVED,N,N,N,N,N,N,N,10/13/2012,10/9/2012,10/15/2012,38,44,Phase 1
CDISCPILOT01,AE,01-703-1086,1086,9/2/2012,12/24/2012,9/2/2012,12/4/2012,,3/26/2013,,,703,71,YEARS,M,WHITE,NOT HISPANIC OR LATINO,Xan_Lo,Xanomeline Low Dose,Xan_Lo,Xanomeline Low Dose,USA,8/22/2012,-11,5,E02,CHILLS,CHILLS,,CHILLS,,HLT_0586,,HLGT_0161,,GENERAL DISORDERS AND ADMINISTRATION SITE CONDITIONS,,GENERAL DISORDERS AND ADMINISTRATION SITE CONDITIONS,,MILD,N,,POSSIBLE,RECOVERED/RESOLVED,N,N,N,N,N,N,N,10/27/2012,10/9/2012,10/15/2012,38,44,Phase 1
CDISCPILOT01,DM,01-703-1096,1096,1/25/2013,3/29/2013,1/25/2013,3/16/2013,,3/29/2013,,,703,81,YEARS,F,WHITE,NOT HISPANIC OR LATINO,Pbo,Placebo,Pbo,Placebo,USA,12/19/2012,-37,,,,,,,,,,,,,,,,,,,,,,,,,,,,,,,,,Phase 1
CDISCPILOT01,AE,01-703-1100,1100,3/13/2013,9/14/2013,3/13/2013,9/14/2013,,2013-09-14T15:00,,,703,84,YEARS,F,WHITE,NOT HISPANIC OR LATINO,Pbo,Placebo,Pbo,Placebo,USA,2/28/2013,-13,1,E04,APPLICATION SITE IRRITATION,APPLICATION SITE IRRITATION,,APPLICATION SITE IRRITATION,,HLT_0061,,HLGT_0346,,GENERAL DISORDERS AND ADMINISTRATION SITE CONDITIONS,,GENERAL DISORDERS AND ADMINISTRATION SITE CONDITIONS,,MODERATE,N,,PROBABLE,NOT RECOVERED/NOT RESOLVED,N,N,N,N,N,N,N,4/12/2013,4/5/2013,4/16/2013,24,35,Phase 1
CDISCPILOT01,AE,01-703-1100,1100,3/13/2013,9/14/2013,3/13/2013,9/14/2013,,2013-09-14T15:00,,,703,84,YEARS,F,WHITE,NOT HISPANIC OR LATINO,Pbo,Placebo,Pbo,Placebo,USA,2/28/2013,-13,2,E04,APPLICATION SITE IRRITATION,APPLICATION SITE IRRITATION,,APPLICATION SITE IRRITATION,,HLT_0061,,HLGT_0346,,GENERAL DISORDERS AND ADMINISTRATION SITE CONDITIONS,,GENERAL DISORDERS AND ADMINISTRATION SITE CONDITIONS,,MILD,N,,PROBABLE,NOT RECOVERED/NOT RESOLVED,N,N,N,N,N,N,N,4/14/2013,4/5/2013,4/16/2013,24,35,Phase 1
CDISCPILOT01,AE,01-703-1100,1100,3/13/2013,9/14/2013,3/13/2013,9/14/2013,,2013-09-14T15:00,,,703,84,YEARS,F,WHITE,NOT HISPANIC OR LATINO,Pbo,Placebo,Pbo,Placebo,USA,2/28/2013,-13,3,E04,APPLICATION SITE IRRITATION,APPLICATION SITE IRRITATION,,APPLICATION SITE IRRITATION,,HLT_0061,,HLGT_0346,,GENERAL DISORDERS AND ADMINISTRATION SITE CONDITIONS,,GENERAL DISORDERS AND ADMINISTRATION SITE CONDITIONS,,MILD,N,,PROBABLE,RECOVERED/RESOLVED,N,N,N,N,N,N,N,4/24/2013,4/5/2013,4/16/2013,24,35,Phase 1
CDISCPILOT01,AE,01-703-1100,1100,3/13/2013,9/14/2013,3/13/2013,9/14/2013,,2013-09-14T15:00,,,703,84,YEARS,F,WHITE,NOT HISPANIC OR LATINO,Pbo,Placebo,Pbo,Placebo,USA,2/28/2013,-13,4,E06,CATARACT OPERATION,CATARACT EXTRACTION,,CATARACT OPERATION,,HLT_0432,,HLGT_0058,,SURGICAL AND MEDICAL PROCEDURES,,SURGICAL AND MEDICAL PROCEDURES,,MODERATE,N,,NONE,RECOVERED/RESOLVED,N,N,N,N,N,N,N,5/8/2013,4/25/2013,4/25/2013,44,44,Phase 1
CDISCPILOT01,AE,01-703-1100,1100,3/13/2013,9/14/2013,3/13/2013,9/14/2013,,2013-09-14T15:00,,,703,84,YEARS,F,WHITE,NOT HISPANIC OR LATINO,Pbo,Placebo,Pbo,Placebo,USA,2/28/2013,-13,6,E07,OEDEMA PERIPHERAL,LEG EDEMA,,OEDEMA PERIPHERAL,,HLT_0661,,HLGT_0137,,GENERAL DISORDERS AND ADMINISTRATION SITE CONDITIONS,,GENERAL DISORDERS AND ADMINISTRATION SITE CONDITIONS,,MODERATE,N,,REMOTE,NOT RECOVERED/NOT RESOLVED,N,N,N,N,N,N,N,7/31/2013,2/28/2013,9/14/2013,-13,186,Phase 1
CDISCPILOT01,AE,01-703-1100,1100,3/13/2013,9/14/2013,3/13/2013,9/14/2013,,2013-09-14T15:00,,,703,84,YEARS,F,WHITE,NOT HISPANIC OR LATINO,Pbo,Placebo,Pbo,Placebo,USA,2/28/2013,-13,8,E07,OEDEMA PERIPHERAL,LEG EDEMA,,OEDEMA PERIPHERAL,,HLT_0661,,HLGT_0137,,GENERAL DISORDERS AND ADMINISTRATION SITE CONDITIONS,,GENERAL DISORDERS AND ADMINISTRATION SITE CONDITIONS,,MODERATE,N,,REMOTE,RECOVERED/RESOLVED,N,N,N,N,N,N,N,9/14/2013,2/28/2013,9/14/2013,-13,186,Phase 1
CDISCPILOT01,AE,01-703-1100,1100,3/13/2013,9/14/2013,3/13/2013,9/14/2013,,2013-09-14T15:00,,,703,84,YEARS,F,WHITE,NOT HISPANIC OR LATINO,Pbo,Placebo,Pbo,Placebo,USA,2/28/2013,-13,7,E09,OEDEMA PERIPHERAL,LEG EDEMA,,OEDEMA PERIPHERAL,,HLT_0661,,HLGT_0137,,GENERAL DISORDERS AND ADMINISTRATION SITE CONDITIONS,,GENERAL DISORDERS AND ADMINISTRATION SITE CONDITIONS,,MILD,N,,REMOTE,NOT RECOVERED/NOT RESOLVED,N,N,N,N,N,N,N,7/31/2013,7/17/2013,9/14/2013,127,186,Phase 2
CDISCPILOT01,AE,01-703-1100,1100,3/13/2013,9/14/2013,3/13/2013,9/14/2013,,2013-09-14T15:00,,,703,84,YEARS,F,WHITE,NOT HISPANIC OR LATINO,Pbo,Placebo,Pbo,Placebo,USA,2/28/2013,-13,9,E09,OEDEMA PERIPHERAL,LEG EDEMA,,OEDEMA PERIPHERAL,,HLT_0661,,HLGT_0137,,GENERAL DISORDERS AND ADMINISTRATION SITE CONDITIONS,,GENERAL DISORDERS AND ADMINISTRATION SITE CONDITIONS,,MILD,N,,REMOTE,RECOVERED/RESOLVED,N,N,N,N,N,N,N,9/14/2013,7/17/2013,9/14/2013,127,186,Phase 2
CDISCPILOT01,AE,01-703-1100,1100,3/13/2013,9/14/2013,3/13/2013,9/14/2013,,2013-09-14T15:00,,,703,84,YEARS,F,WHITE,NOT HISPANIC OR LATINO,Pbo,Placebo,Pbo,Placebo,USA,2/28/2013,-13,5,E08,UPPER RESPIRATORY TRACT INFECTION,UPPER RESPIRATORY INFECTION,,UPPER RESPIRATORY TRACT INFECTION,,HLT_0520,,HLGT_0489,,INFECTIONS AND INFESTATIONS,,INFECTIONS AND INFESTATIONS,,MODERATE,N,,REMOTE,RECOVERED/RESOLVED,N,N,N,N,N,N,N,6/5/2013,5/27/2013,6/3/2013,76,83,Phase 1
CDISCPILOT01,AE,01-703-1119,1119,2/20/2013,6/13/2013,2/20/2013,6/13/2013,,8/24/2013,,,703,81,YEARS,F,WHITE,NOT HISPANIC OR LATINO,Xan_Lo,Xanomeline Low Dose,Xan_Lo,Xanomeline Low Dose,USA,2/2/2013,-18,1,E04,APPLICATION SITE IRRITATION,APPLICATION SITE IRRITATION,,APPLICATION SITE IRRITATION,,HLT_0061,,HLGT_0346,,GENERAL DISORDERS AND ADMINISTRATION SITE CONDITIONS,,GENERAL DISORDERS AND ADMINISTRATION SITE CONDITIONS,,MODERATE,N,,PROBABLE,NOT RECOVERED/NOT RESOLVED,N,N,N,N,N,N,N,3/21/2013,3/16/2013,,25,,Phase 1
CDISCPILOT01,AE,01-703-1119,1119,2/20/2013,6/13/2013,2/20/2013,6/13/2013,,8/24/2013,,,703,81,YEARS,F,WHITE,NOT HISPANIC OR LATINO,Xan_Lo,Xanomeline Low Dose,Xan_Lo,Xanomeline Low Dose,USA,2/2/2013,-18,2,E04,APPLICATION SITE IRRITATION,APPLICATION SITE IRRITATION,,APPLICATION SITE IRRITATION,,HLT_0061,,HLGT_0346,,GENERAL DISORDERS AND ADMINISTRATION SITE CONDITIONS,,GENERAL DISORDERS AND ADMINISTRATION SITE CONDITIONS,,SEVERE,N,,PROBABLE,NOT RECOVERED/NOT RESOLVED,N,N,N,N,N,N,N,5/17/2013,3/16/2013,,25,,Phase 1
CDISCPILOT01,AE,01-703-1119,1119,2/20/2013,6/13/2013,2/20/2013,6/13/2013,,8/24/2013,,,703,81,YEARS,F,WHITE,NOT HISPANIC OR LATINO,Xan_Lo,Xanomeline Low Dose,Xan_Lo,Xanomeline Low Dose,USA,2/2/2013,-18,3,E05,PRURITUS,ITCHING,,PRURITUS,,HLT_0778,,HLGT_0695,,SKIN AND SUBCUTANEOUS TISSUE DISORDERS,,SKIN AND SUBCUTANEOUS TISSUE DISORDERS,,MODERATE,N,,PROBABLE,NOT RECOVERED/NOT RESOLVED,N,N,N,N,N,N,N,5/17/2013,5/4/2013,,74,,Phase 1
CDISCPILOT01,AE,01-703-1119,1119,2/20/2013,6/13/2013,2/20/2013,6/13/2013,,8/24/2013,,,703,81,YEARS,F,WHITE,NOT HISPANIC OR LATINO,Xan_Lo,Xanomeline Low Dose,Xan_Lo,Xanomeline Low Dose,USA,2/2/2013,-18,4,E05,PRURITUS,ITCHING,,PRURITUS,,HLT_0778,,HLGT_0695,,SKIN AND SUBCUTANEOUS TISSUE DISORDERS,,SKIN AND SUBCUTANEOUS TISSUE DISORDERS,,SEVERE,N,,PROBABLE,NOT RECOVERED/NOT RESOLVED,N,N,N,N,N,N,N,6/13/2013,5/4/2013,,74,,Phase 1
CDISCPILOT01,AE,01-703-1175,1175,12/20/2013,12/31/2013,12/20/2013,12/26/2013,,2013-12-31T13:15,,,703,75,YEARS,M,WHITE,NOT HISPANIC OR LATINO,Pbo,Placebo,Pbo,Placebo,USA,12/13/2013,-7,1,E01,ATRIOVENTRICULAR BLOCK SECOND DEGREE,HEART BLOCK SECOND DEGREE,,ATRIOVENTRICULAR BLOCK SECOND DEGREE,,HLT_0415,,HLGT_0086,,CARDIAC DISORDERS,,CARDIAC DISORDERS,,SEVERE,N,,NONE,NOT RECOVERED/NOT RESOLVED,N,N,N,N,N,N,N,12/18/2013,12/18/2013,,-2,,Phase 1
CDISCPILOT01,AE,01-703-1182,1182,10/17/2013,12/12/2013,10/17/2013,12/11/2013,,1/14/2014,,,703,84,YEARS,M,WHITE,NOT HISPANIC OR LATINO,Xan_Lo,Xanomeline Low Dose,Xan_Lo,Xanomeline Low Dose,USA,10/8/2013,-9,1,E05,APPLICATION SITE ERYTHEMA,APPLICATION SITE REDNESS,,APPLICATION SITE ERYTHEMA,,HLT_0617,,HLGT_0152,,GENERAL DISORDERS AND ADMINISTRATION SITE CONDITIONS,,GENERAL DISORDERS AND ADMINISTRATION SITE CONDITIONS,,MILD,N,,POSSIBLE,NOT RECOVERED/NOT RESOLVED,N,N,N,N,N,N,N,10/31/2013,10/31/2013,,15,,Phase 1
CDISCPILOT01,AE,01-703-1182,1182,10/17/2013,12/12/2013,10/17/2013,12/11/2013,,1/14/2014,,,703,84,YEARS,M,WHITE,NOT HISPANIC OR LATINO,Xan_Lo,Xanomeline Low Dose,Xan_Lo,Xanomeline Low Dose,USA,10/8/2013,-9,2,E05,APPLICATION SITE ERYTHEMA,APPLICATION SITE REDNESS,,APPLICATION SITE ERYTHEMA,,HLT_0617,,HLGT_0152,,GENERAL DISORDERS AND ADMINISTRATION SITE CONDITIONS,,GENERAL DISORDERS AND ADMINISTRATION SITE CONDITIONS,,MODERATE,N,,POSSIBLE,NOT RECOVERED/NOT RESOLVED,N,N,N,N,N,N,N,11/28/2013,10/31/2013,,15,,Phase 1
CDISCPILOT01,AE,01-703-1182,1182,10/17/2013,12/12/2013,10/17/2013,12/11/2013,,1/14/2014,,,703,84,YEARS,M,WHITE,NOT HISPANIC OR LATINO,Xan_Lo,Xanomeline Low Dose,Xan_Lo,Xanomeline Low Dose,USA,10/8/2013,-9,3,E07,SOMNOLENCE,DROWSINESS,,SOMNOLENCE,,HLT_0160,,HLGT_0254,,NERVOUS SYSTEM DISORDERS,,NERVOUS SYSTEM DISORDERS,,MILD,N,,REMOTE,NOT RECOVERED/NOT RESOLVED,N,N,N,N,N,N,N,11/28/2013,11/22/2013,,37,,Phase 1
CDISCPILOT01,AE,01-703-1182,1182,10/17/2013,12/12/2013,10/17/2013,12/11/2013,,1/14/2014,,,703,84,YEARS,M,WHITE,NOT HISPANIC OR LATINO,Xan_Lo,Xanomeline Low Dose,Xan_Lo,Xanomeline Low Dose,USA,10/8/2013,-9,4,E07,SOMNOLENCE,DROWSINESS,,SOMNOLENCE,,HLT_0160,,HLGT_0254,,NERVOUS SYSTEM DISORDERS,,NERVOUS SYSTEM DISORDERS,,MODERATE,N,,REMOTE,NOT RECOVERED/NOT RESOLVED,N,N,N,N,N,N,N,12/12/2013,11/22/2013,,37,,Phase 1
CDISCPILOT01,DM,01-703-1197,1197,6/16/2013,7/22/2013,6/16/2013,6/29/2013,,7/22/2013,,,703,76,YEARS,F,BLACK OR AFRICAN AMERICAN,NOT HISPANIC OR LATINO,Xan_Lo,Xanomeline Low Dose,Xan_Lo,Xanomeline Low Dose,USA,6/1/2013,-15,,,,,,,,,,,,,,,,,,,,,,,,,,,,,,,,,Phase 1
CDISCPILOT01,AE,01-703-1210,1210,3/16/2013,9/6/2013,3/16/2013,9/6/2013,,2013-09-06T13:30,,,703,72,YEARS,F,WHITE,NOT HISPANIC OR LATINO,Pbo,Placebo,Pbo,Placebo,USA,3/8/2013,-8,2,E04,DECREASED APPETITE,DECREASED APPETITE,,DECREASED APPETITE,,HLT_0574,,HLGT_0231,,METABOLISM AND NUTRITION DISORDERS,,METABOLISM AND NUTRITION DISORDERS,,MILD,N,,POSSIBLE,NOT RECOVERED/NOT RESOLVED,N,N,N,N,N,N,N,5/10/2013,5/4/2013,,50,,Phase 1
CDISCPILOT01,AE,01-703-1210,1210,3/16/2013,9/6/2013,3/16/2013,9/6/2013,,2013-09-06T13:30,,,703,72,YEARS,F,WHITE,NOT HISPANIC OR LATINO,Pbo,Placebo,Pbo,Placebo,USA,3/8/2013,-8,3,E04,DECREASED APPETITE,DECREASED APPETITE,,DECREASED APPETITE,,HLT_0574,,HLGT_0231,,METABOLISM AND NUTRITION DISORDERS,,METABOLISM AND NUTRITION DISORDERS,,MODERATE,N,,POSSIBLE,NOT RECOVERED/NOT RESOLVED,N,N,N,N,N,N,N,8/24/2013,5/4/2013,,50,,Phase 1
CDISCPILOT01,AE,01-703-1210,1210,3/16/2013,9/6/2013,3/16/2013,9/6/2013,,2013-09-06T13:30,,,703,72,YEARS,F,WHITE,NOT HISPANIC OR LATINO,Pbo,Placebo,Pbo,Placebo,USA,3/8/2013,-8,1,E01,DISORIENTATION,DISORIENTATION,,DISORIENTATION,,HLT_0299,,HLGT_0307,,PSYCHIATRIC DISORDERS,,PSYCHIATRIC DISORDERS,,MILD,N,,REMOTE,NOT RECOVERED/NOT RESOLVED,N,N,N,N,N,N,N,4/12/2013,4/2/2013,,18,,Phase 1
CDISCPILOT01,AE,01-703-1258,1258,7/20/2012,1/21/2013,7/20/2012,1/11/2013,,1/28/2013,,,703,78,YEARS,F,WHITE,NOT HISPANIC OR LATINO,Xan_Hi,Xanomeline High Dose,Xan_Hi,Xanomeline High Dose,USA,7/10/2012,-10,4,E08,APPLICATION SITE DERMATITIS,APPLICATION SITE RASH,,APPLICATION SITE DERMATITIS,,HLT_0343,,HLGT_0241,,GENERAL DISORDERS AND ADMINISTRATION SITE CONDITIONS,,GENERAL DISORDERS AND ADMINISTRATION SITE CONDITIONS,,MILD,N,,PROBABLE,NOT RECOVERED/NOT RESOLVED,N,N,N,N,N,N,N,9/4/2012,9/4/2012,1/25/2013,47,190,Phase 1
CDISCPILOT01,AE,01-703-1258,1258,7/20/2012,1/21/2013,7/20/2012,1/11/2013,,1/28/2013,,,703,78,YEARS,F,WHITE,NOT HISPANIC OR LATINO,Xan_Hi,Xanomeline High Dose,Xan_Hi,Xanomeline High Dose,USA,7/10/2012,-10,6,E08,APPLICATION SITE DERMATITIS,APPLICATION SITE RASH,,APPLICATION SITE DERMATITIS,,HLT_0343,,HLGT_0241,,GENERAL DISORDERS AND ADMINISTRATION SITE CONDITIONS,,GENERAL DISORDERS AND ADMINISTRATION SITE CONDITIONS,,MODERATE,N,,PROBABLE,NOT RECOVERED/NOT RESOLVED,N,N,N,N,N,N,N,9/14/2012,9/4/2012,1/25/2013,47,190,Phase 1
CDISCPILOT01,AE,01-703-1258,1258,7/20/2012,1/21/2013,7/20/2012,1/11/2013,,1/28/2013,,,703,78,YEARS,F,WHITE,NOT HISPANIC OR LATINO,Xan_Hi,Xanomeline High Dose,Xan_Hi,Xanomeline High Dose,USA,7/10/2012,-10,7,E08,APPLICATION SITE DERMATITIS,APPLICATION SITE RASH,,APPLICATION SITE DERMATITIS,,HLT_0343,,HLGT_0241,,GENERAL DISORDERS AND ADMINISTRATION SITE CONDITIONS,,GENERAL DISORDERS AND ADMINISTRATION SITE CONDITIONS,,MILD,N,,PROBABLE,RECOVERED/RESOLVED,N,N,N,N,N,N,N,1/28/2013,9/4/2012,1/25/2013,47,190,Phase 1
CDISCPILOT01,AE,01-703-1258,1258,7/20/2012,1/21/2013,7/20/2012,1/11/2013,,1/28/2013,,,703,78,YEARS,F,WHITE,NOT HISPANIC OR LATINO,Xan_Hi,Xanomeline High Dose,Xan_Hi,Xanomeline High Dose,USA,7/10/2012,-10,2,E06,DIZZINESS,DIZZINESS,,DIZZINESS,,HLT_0619,,HLGT_0751,,NERVOUS SYSTEM DISORDERS,,NERVOUS SYSTEM DISORDERS,,MODERATE,N,,NONE,NOT RECOVERED/NOT RESOLVED,N,N,N,N,N,N,N,9/4/2012,2001,,,,Phase 1
CDISCPILOT01,AE,01-703-1258,1258,7/20/2012,1/21/2013,7/20/2012,1/11/2013,,1/28/2013,,,703,78,YEARS,F,WHITE,NOT HISPANIC OR LATINO,Xan_Hi,Xanomeline High Dose,Xan_Hi,Xanomeline High Dose,USA,7/10/2012,-10,5,E06,DIZZINESS,DIZZINESS,,DIZZINESS,,HLT_0619,,HLGT_0751,,NERVOUS SYSTEM DISORDERS,,NERVOUS SYSTEM DISORDERS,,MILD,N,,NONE,NOT RECOVERED/NOT RESOLVED,N,N,N,N,N,N,N,9/14/2012,2001,,,,Phase 1
CDISCPILOT01,AE,01-703-1258,1258,7/20/2012,1/21/2013,7/20/2012,1/11/2013,,1/28/2013,,,703,78,YEARS,F,WHITE,NOT HISPANIC OR LATINO,Xan_Hi,Xanomeline High Dose,Xan_Hi,Xanomeline High Dose,USA,7/10/2012,-10,1,E07,UPPER RESPIRATORY TRACT INFECTION,UPPER RESPIRATORY INFECTION,,UPPER RESPIRATORY TRACT INFECTION,,HLT_0520,,HLGT_0489,,INFECTIONS AND INFESTATIONS,,INFECTIONS AND INFESTATIONS,,MILD,N,,NONE,NOT RECOVERED/NOT RESOLVED,N,N,N,N,N,N,N,8/17/2012,8/11/2012,8/19/2012,23,31,Phase 1
CDISCPILOT01,AE,01-703-1258,1258,7/20/2012,1/21/2013,7/20/2012,1/11/2013,,1/28/2013,,,703,78,YEARS,F,WHITE,NOT HISPANIC OR LATINO,Xan_Hi,Xanomeline High Dose,Xan_Hi,Xanomeline High Dose,USA,7/10/2012,-10,3,E07,UPPER RESPIRATORY TRACT INFECTION,UPPER RESPIRATORY INFECTION,,UPPER RESPIRATORY TRACT INFECTION,,HLT_0520,,HLGT_0489,,INFECTIONS AND INFESTATIONS,,INFECTIONS AND INFESTATIONS,,MILD,N,,NONE,RECOVERED/RESOLVED,N,N,N,N,N,N,N,9/4/2012,8/11/2012,8/19/2012,23,31,Phase 1
CDISCPILOT01,DM,01-703-1279,1279,5/13/2013,6/22/2013,5/13/2013,6/3/2013,,6/22/2013,,,703,72,YEARS,F,WHITE,NOT HISPANIC OR LATINO,Xan_Lo,Xanomeline Low Dose,Xan_Lo,Xanomeline Low Dose,USA,4/27/2013,-16,,,,,,,,,,,,,,,,,,,,,,,,,,,,,,,,,Phase 1
CDISCPILOT01,AE,01-703-1295,1295,11/21/2013,5/19/2014,11/21/2013,4/19/2014,,2014-05-19T14:45,,,703,88,YEARS,F,WHITE,NOT HISPANIC OR LATINO,Xan_Hi,Xanomeline High Dose,Xan_Hi,Xanomeline High Dose,USA,10/24/2013,-28,1,E06,ARTHRITIS,ARTHRITIS,,ARTHRITIS,,HLT_0019,,HLGT_0587,,MUSCULOSKELETAL AND CONNECTIVE TISSUE DISORDERS,,MUSCULOSKELETAL AND CONNECTIVE TISSUE DISORDERS,,MODERATE,N,,NONE,NOT RECOVERED/NOT RESOLVED,N,N,N,N,N,N,N,1/1/2014,12/28/2013,,38,,Phase 1
CDISCPILOT01,AE,01-703-1299,1299,9/12/2012,3/13/2013,9/12/2012,3/13/2013,,3/27/2013,,,703,81,YEARS,F,WHITE,NOT HISPANIC OR LATINO,Pbo,Placebo,Pbo,Placebo,USA,9/7/2012,-5,3,E01,GLAUCOMA,GLAUCOMA,,GLAUCOMA,,HLT_0556,,HLGT_0734,,EYE DISORDERS,,EYE DISORDERS,,MODERATE,N,,NONE,NOT RECOVERED/NOT RESOLVED,N,N,N,N,N,N,N,3/1/2013,1992,,,,Phase 1
CDISCPILOT01,AE,01-703-1299,1299,9/12/2012,3/13/2013,9/12/2012,3/13/2013,,3/27/2013,,,703,81,YEARS,F,WHITE,NOT HISPANIC OR LATINO,Pbo,Placebo,Pbo,Placebo,USA,9/7/2012,-5,4,E05,HYPOTENSION,HYPOTENSION,,HYPOTENSION,,HLT_0761,,HLGT_0412,,VASCULAR DISORDERS,,VASCULAR DISORDERS,,MILD,N,,REMOTE,NOT RECOVERED/NOT RESOLVED,N,N,N,N,N,N,N,3/1/2013,3/1/2013,,171,,Phase 2
CDISCPILOT01,AE,01-703-1299,1299,9/12/2012,3/13/2013,9/12/2012,3/13/2013,,3/27/2013,,,703,81,YEARS,F,WHITE,NOT HISPANIC OR LATINO,Pbo,Placebo,Pbo,Placebo,USA,9/7/2012,-5,6,E05,HYPOTENSION,HYPOTENSION,,HYPOTENSION,,HLT_0761,,HLGT_0412,,VASCULAR DISORDERS,,VASCULAR DISORDERS,,MODERATE,N,,REMOTE,NOT RECOVERED/NOT RESOLVED,N,N,N,N,N,N,N,3/13/2013,3/1/2013,,171,,Phase 2
CDISCPILOT01,AE,01-703-1299,1299,9/12/2012,3/13/2013,9/12/2012,3/13/2013,,3/27/2013,,,703,81,YEARS,F,WHITE,NOT HISPANIC OR LATINO,Pbo,Placebo,Pbo,Placebo,USA,9/7/2012,-5,8,E07,MYOCARDIAL INFARCTION,MYOCARDIAL INFARCTION,,MYOCARDIAL INFARCTION,,HLT_0649,,HLGT_0688,,CARDIAC DISORDERS,,CARDIAC DISORDERS,,MODERATE,N,,REMOTE,NOT RECOVERED/NOT RESOLVED,N,N,N,N,N,N,N,3/13/2013,3/13/2013,,183,,Phase 2
CDISCPILOT01,AE,01-703-1299,1299,9/12/2012,3/13/2013,9/12/2012,3/13/2013,,3/27/2013,,,703,81,YEARS,F,WHITE,NOT HISPANIC OR LATINO,Pbo,Placebo,Pbo,Placebo,USA,9/7/2012,-5,5,E06,TACHYCARDIA,TACHYCARDIA,,TACHYCARDIA,,HLT_0082,,HLGT_0574,,CARDIAC DISORDERS,,CARDIAC DISORDERS,,MILD,N,,REMOTE,NOT RECOVERED/NOT RESOLVED,N,N,N,N,N,N,N,3/1/2013,3/1/2013,,171,,Phase 2
CDISCPILOT01,AE,01-703-1299,1299,9/12/2012,3/13/2013,9/12/2012,3/13/2013,,3/27/2013,,,703,81,YEARS,F,WHITE,NOT HISPANIC OR LATINO,Pbo,Placebo,Pbo,Placebo,USA,9/7/2012,-5,7,E06,TACHYCARDIA,TACHYCARDIA,,TACHYCARDIA,,HLT_0082,,HLGT_0574,,CARDIAC DISORDERS,,CARDIAC DISORDERS,,MODERATE,N,,REMOTE,NOT RECOVERED/NOT RESOLVED,N,N,N,N,N,N,N,3/13/2013,3/1/2013,,171,,Phase 2
CDISCPILOT01,AE,01-703-1299,1299,9/12/2012,3/13/2013,9/12/2012,3/13/2013,,3/27/2013,,,703,81,YEARS,F,WHITE,NOT HISPANIC OR LATINO,Pbo,Placebo,Pbo,Placebo,USA,9/7/2012,-5,1,E02,UPPER RESPIRATORY TRACT INFECTION,UPPER RESPIRATORY INFECTION,,UPPER RESPIRATORY TRACT INFECTION,,HLT_0520,,HLGT_0489,,INFECTIONS AND INFESTATIONS,,INFECTIONS AND INFESTATIONS,,MILD,N,,NONE,NOT RECOVERED/NOT RESOLVED,N,N,N,N,N,N,N,9/28/2012,9/27/2012,10/6/2012,16,25,Phase 1
CDISCPILOT01,AE,01-703-1299,1299,9/12/2012,3/13/2013,9/12/2012,3/13/2013,,3/27/2013,,,703,81,YEARS,F,WHITE,NOT HISPANIC OR LATINO,Pbo,Placebo,Pbo,Placebo,USA,9/7/2012,-5,2,E02,UPPER RESPIRATORY TRACT INFECTION,UPPER RESPIRATORY INFECTION,,UPPER RESPIRATORY TRACT INFECTION,,HLT_0520,,HLGT_0489,,INFECTIONS AND INFESTATIONS,,INFECTIONS AND INFESTATIONS,,MILD,N,,NONE,RECOVERED/RESOLVED,N,N,N,N,N,N,N,10/10/2012,9/27/2012,10/6/2012,16,25,Phase 1
CDISCPILOT01,AE,01-703-1335,1335,3/17/2014,5/24/2014,3/17/2014,5/7/2014,,2014-05-24T12:15,,,703,67,YEARS,F,BLACK OR AFRICAN AMERICAN,NOT HISPANIC OR LATINO,Xan_Hi,Xanomeline High Dose,Xan_Hi,Xanomeline High Dose,USA,2/28/2014,-17,1,E01,ATRIOVENTRICULAR BLOCK SECOND DEGREE,AV BLOCK SECOND DEGREE,,ATRIOVENTRICULAR BLOCK SECOND DEGREE,,HLT_0415,,HLGT_0086,,CARDIAC DISORDERS,,CARDIAC DISORDERS,,MILD,N,,NONE,NOT RECOVERED/NOT RESOLVED,N,N,N,N,N,N,N,3/15/2014,3/15/2014,3/30/2014,-2,14,Phase 1
CDISCPILOT01,AE,01-703-1335,1335,3/17/2014,5/24/2014,3/17/2014,5/7/2014,,2014-05-24T12:15,,,703,67,YEARS,F,BLACK OR AFRICAN AMERICAN,NOT HISPANIC OR LATINO,Xan_Hi,Xanomeline High Dose,Xan_Hi,Xanomeline High Dose,USA,2/28/2014,-17,2,E01,ATRIOVENTRICULAR BLOCK SECOND DEGREE,AV BLOCK SECOND DEGREE,,ATRIOVENTRICULAR BLOCK SECOND DEGREE,,HLT_0415,,HLGT_0086,,CARDIAC DISORDERS,,CARDIAC DISORDERS,,MILD,N,,NONE,RECOVERED/RESOLVED,N,N,N,N,N,N,N,3/31/2014,3/15/2014,3/30/2014,-2,14,Phase 1
CDISCPILOT01,DM,01-703-1379,1379,9/22/2013,3/21/2014,9/22/2013,3/21/2014,,2014-03-21T10:55,,,703,81,YEARS,F,BLACK OR AFRICAN AMERICAN,NOT HISPANIC OR LATINO,Xan_Lo,Xanomeline Low Dose,Xan_Lo,Xanomeline Low Dose,USA,9/12/2013,-10,,,,,,,,,,,,,,,,,,,,,,,,,,,,,,,,,Phase 1
CDISCPILOT01,AE,01-703-1403,1403,12/12/2012,12/19/2012,12/12/2012,12/13/2012,,1/8/2013,,,703,67,YEARS,M,WHITE,NOT HISPANIC OR LATINO,Xan_Hi,Xanomeline High Dose,Xan_Lo,Xanomeline Low Dose,USA,12/5/2012,-7,4,E03,CHEST DISCOMFORT,CHEST TIGHTNESS,,CHEST DISCOMFORT,,HLT_0593,,HLGT_0441,,GENERAL DISORDERS AND ADMINISTRATION SITE CONDITIONS,,GENERAL DISORDERS AND ADMINISTRATION SITE CONDITIONS,,MILD,N,,PROBABLE,RECOVERED/RESOLVED,N,N,N,N,N,N,N,12/19/2012,12/15/2012,12/16/2012,4,5,Phase 1
CDISCPILOT01,AE,01-703-1403,1403,12/12/2012,12/19/2012,12/12/2012,12/13/2012,,1/8/2013,,,703,67,YEARS,M,WHITE,NOT HISPANIC OR LATINO,Xan_Hi,Xanomeline High Dose,Xan_Lo,Xanomeline Low Dose,USA,12/5/2012,-7,2,E01,DIARRHOEA,DIARRHEA,,DIARRHOEA,,HLT_0148,,HLGT_0588,,GASTROINTESTINAL DISORDERS,,GASTROINTESTINAL DISORDERS,,MODERATE,N,,PROBABLE,RECOVERED/RESOLVED,N,N,N,N,N,N,N,12/19/2012,12/13/2012,12/14/2012,2,3,Phase 1
CDISCPILOT01,AE,01-703-1403,1403,12/12/2012,12/19/2012,12/12/2012,12/13/2012,,1/8/2013,,,703,67,YEARS,M,WHITE,NOT HISPANIC OR LATINO,Xan_Hi,Xanomeline High Dose,Xan_Lo,Xanomeline Low Dose,USA,12/5/2012,-7,3,E02,VOMITING,VOMITING,,VOMITING,,HLT_0016,,HLGT_0350,,GASTROINTESTINAL DISORDERS,,GASTROINTESTINAL DISORDERS,,MODERATE,N,,PROBABLE,RECOVERED/RESOLVED,N,N,N,N,N,N,N,12/19/2012,12/13/2012,12/14/2012,2,3,Phase 1
CDISCPILOT01,AE,01-703-1403,1403,12/12/2012,12/19/2012,12/12/2012,12/13/2012,,1/8/2013,,,703,67,YEARS,M,WHITE,NOT HISPANIC OR LATINO,Xan_Hi,Xanomeline High Dose,Xan_Lo,Xanomeline Low Dose,USA,12/5/2012,-7,1,E07,WEIGHT DECREASED,WEIGHT LOSS,,WEIGHT DECREASED,,HLT_0158,,HLGT_0778,,INVESTIGATIONS,,INVESTIGATIONS,,MODERATE,N,,NONE,NOT RECOVERED/NOT RESOLVED,N,N,N,N,N,N,N,12/19/2012,12/12/2012,12/19/2012,1,8,Phase 1
CDISCPILOT01,AE,01-703-1403,1403,12/12/2012,12/19/2012,12/12/2012,12/13/2012,,1/8/2013,,,703,67,YEARS,M,WHITE,NOT HISPANIC OR LATINO,Xan_Hi,Xanomeline High Dose,Xan_Lo,Xanomeline Low Dose,USA,12/5/2012,-7,5,E07,WEIGHT DECREASED,WEIGHT LOSS,,WEIGHT DECREASED,,HLT_0158,,HLGT_0778,,INVESTIGATIONS,,INVESTIGATIONS,,MODERATE,N,,NONE,RECOVERED/RESOLVED,N,N,N,N,N,N,N,1/8/2013,12/12/2012,12/19/2012,1,8,Phase 1
CDISCPILOT01,AE,01-703-1439,1439,3/12/2014,9/11/2014,3/12/2014,9/11/2014,,2014-09-11T12:40,,,703,76,YEARS,F,WHITE,NOT HISPANIC OR LATINO,Xan_Hi,Xanomeline High Dose,Xan_Hi,Xanomeline High Dose,USA,3/4/2014,-8,1,E01,APPLICATION SITE IRRITATION,APPLICATION SITE IRRITATION,,APPLICATION SITE IRRITATION,,HLT_0061,,HLGT_0346,,GENERAL DISORDERS AND ADMINISTRATION SITE CONDITIONS,,GENERAL DISORDERS AND ADMINISTRATION SITE CONDITIONS,,MILD,N,,PROBABLE,NOT RECOVERED/NOT RESOLVED,N,N,N,N,N,N,N,5/5/2014,4/24/2014,,44,,Phase 1
CDISCPILOT01,AE,01-703-1439,1439,3/12/2014,9/11/2014,3/12/2014,9/11/2014,,2014-09-11T12:40,,,703,76,YEARS,F,WHITE,NOT HISPANIC OR LATINO,Xan_Hi,Xanomeline High Dose,Xan_Hi,Xanomeline High Dose,USA,3/4/2014,-8,2,E01,APPLICATION SITE IRRITATION,APPLICATION SITE IRRITATION,,APPLICATION SITE IRRITATION,,HLT_0061,,HLGT_0346,,GENERAL DISORDERS AND ADMINISTRATION SITE CONDITIONS,,GENERAL DISORDERS AND ADMINISTRATION SITE CONDITIONS,,MODERATE,N,,PROBABLE,NOT RECOVERED/NOT RESOLVED,N,N,N,N,N,N,N,6/30/2014,4/24/2014,,44,,Phase 1
CDISCPILOT01,AE,01-704-1008,1008,1/13/2013,2/25/2013,1/13/2013,2/21/2013,,2013-02-25T11:00,,,704,76,YEARS,F,WHITE,NOT HISPANIC OR LATINO,Xan_Hi,Xanomeline High Dose,Xan_Hi,Xanomeline High Dose,USA,1/6/2013,-7,1,E03,HYPERHIDROSIS,SWEATING INCREASED,,HYPERHIDROSIS,,HLT_0587,,HLGT_0005,,SKIN AND SUBCUTANEOUS TISSUE DISORDERS,,SKIN AND SUBCUTANEOUS TISSUE DISORDERS,,MILD,N,,POSSIBLE,NOT RECOVERED/NOT RESOLVED,N,N,N,N,N,N,N,2/9/2013,1/30/2013,,18,,Phase 1
CDISCPILOT01,AE,01-704-1008,1008,1/13/2013,2/25/2013,1/13/2013,2/21/2013,,2013-02-25T11:00,,,704,76,YEARS,F,WHITE,NOT HISPANIC OR LATINO,Xan_Hi,Xanomeline High Dose,Xan_Hi,Xanomeline High Dose,USA,1/6/2013,-7,3,E05,SINUS BRADYCARDIA,SINUS BRADYCARDIA,,SINUS BRADYCARDIA,,HLT_0644,,HLGT_0500,,CARDIAC DISORDERS,,CARDIAC DISORDERS,,MODERATE,N,,NONE,NOT RECOVERED/NOT RESOLVED,N,N,N,N,N,N,N,2/25/2013,2/25/2013,,44,,Phase 1
CDISCPILOT01,AE,01-704-1008,1008,1/13/2013,2/25/2013,1/13/2013,2/21/2013,,2013-02-25T11:00,,,704,76,YEARS,F,WHITE,NOT HISPANIC OR LATINO,Xan_Hi,Xanomeline High Dose,Xan_Hi,Xanomeline High Dose,USA,1/6/2013,-7,2,E06,TRANSIENT ISCHAEMIC ATTACK,TRANSIENT ISCHEMIC ATTACKS,,TRANSIENT ISCHAEMIC ATTACK,,HLT_0041,,HLGT_0433,,NERVOUS SYSTEM DISORDERS,,NERVOUS SYSTEM DISORDERS,,SEVERE,N,,NONE,RECOVERED/RESOLVED,N,N,N,N,Y,N,N,2/25/2013,2/21/2013,2/21/2013,40,40,Phase 1
CDISCPILOT01,AE,01-704-1009,1009,8/27/2013,10/2/2013,8/27/2013,9/25/2013,,10/2/2013,,,704,83,YEARS,M,WHITE,NOT HISPANIC OR LATINO,Xan_Lo,Xanomeline Low Dose,Xan_Lo,Xanomeline Low Dose,USA,8/20/2013,-7,5,E07,DIZZINESS,DIZZINESS,,DIZZINESS,,HLT_0619,,HLGT_0751,,NERVOUS SYSTEM DISORDERS,,NERVOUS SYSTEM DISORDERS,,MILD,N,,REMOTE,NOT RECOVERED/NOT RESOLVED,N,N,N,N,N,N,N,10/2/2013,9/17/2013,,22,,Phase 1
CDISCPILOT01,AE,01-704-1009,1009,8/27/2013,10/2/2013,8/27/2013,9/25/2013,,10/2/2013,,,704,83,YEARS,M,WHITE,NOT HISPANIC OR LATINO,Xan_Lo,Xanomeline Low Dose,Xan_Lo,Xanomeline Low Dose,USA,8/20/2013,-7,1,E09,FATIGUE,FATIGUE,,FATIGUE,,HLT_0043,,HLGT_0181,,GENERAL DISORDERS AND ADMINISTRATION SITE CONDITIONS,,GENERAL DISORDERS AND ADMINISTRATION SITE CONDITIONS,,MILD,N,,REMOTE,NOT RECOVERED/NOT RESOLVED,N,N,N,N,N,N,N,9/14/2013,9/5/2013,,10,,Phase 1
CDISCPILOT01,AE,01-704-1009,1009,8/27/2013,10/2/2013,8/27/2013,9/25/2013,,10/2/2013,,,704,83,YEARS,M,WHITE,NOT HISPANIC OR LATINO,Xan_Lo,Xanomeline Low Dose,Xan_Lo,Xanomeline Low Dose,USA,8/20/2013,-7,2,E10,MALAISE,MALAISE,,MALAISE,,HLT_0456,,HLGT_0178,,GENERAL DISORDERS AND ADMINISTRATION SITE CONDITIONS,,GENERAL DISORDERS AND ADMINISTRATION SITE CONDITIONS,,MILD,N,,POSSIBLE,NOT RECOVERED/NOT RESOLVED,N,N,N,N,N,N,N,9/14/2013,9/5/2013,9/27/2013,10,32,Phase 1
CDISCPILOT01,AE,01-704-1009,1009,8/27/2013,10/2/2013,8/27/2013,9/25/2013,,10/2/2013,,,704,83,YEARS,M,WHITE,NOT HISPANIC OR LATINO,Xan_Lo,Xanomeline Low Dose,Xan_Lo,Xanomeline Low Dose,USA,8/20/2013,-7,4,E10,MALAISE,MALAISE,,MALAISE,,HLT_0456,,HLGT_0178,,GENERAL DISORDERS AND ADMINISTRATION SITE CONDITIONS,,GENERAL DISORDERS AND ADMINISTRATION SITE CONDITIONS,,MILD,N,,POSSIBLE,RECOVERED/RESOLVED,N,N,N,N,N,N,N,10/2/2013,9/5/2013,9/27/2013,10,32,Phase 1
CDISCPILOT01,AE,01-704-1009,1009,8/27/2013,10/2/2013,8/27/2013,9/25/2013,,10/2/2013,,,704,83,YEARS,M,WHITE,NOT HISPANIC OR LATINO,Xan_Lo,Xanomeline Low Dose,Xan_Lo,Xanomeline Low Dose,USA,8/20/2013,-7,6,E08,NAUSEA,NAUSEA,,NAUSEA,,HLT_0742,,HLGT_0326,,GASTROINTESTINAL DISORDERS,,GASTROINTESTINAL DISORDERS,,MILD,N,,POSSIBLE,RECOVERED/RESOLVED,N,N,N,N,N,N,N,10/2/2013,9/22/2013,9/23/2013,27,28,Phase 1
CDISCPILOT01,AE,01-704-1009,1009,8/27/2013,10/2/2013,8/27/2013,9/25/2013,,10/2/2013,,,704,83,YEARS,M,WHITE,NOT HISPANIC OR LATINO,Xan_Lo,Xanomeline Low Dose,Xan_Lo,Xanomeline Low Dose,USA,8/20/2013,-7,3,E03,RASH,RASH,,RASH,,HLT_0762,,HLGT_0198,,SKIN AND SUBCUTANEOUS TISSUE DISORDERS,,SKIN AND SUBCUTANEOUS TISSUE DISORDERS,,MILD,N,,POSSIBLE,NOT RECOVERED/NOT RESOLVED,N,N,N,N,N,N,N,9/14/2013,9/14/2013,,19,,Phase 1
CDISCPILOT01,AE,01-704-1010,1010,2/21/2014,7/9/2014,2/21/2014,7/8/2014,,2014-07-09T11:00,,,704,80,YEARS,M,WHITE,NOT HISPANIC OR LATINO,Pbo,Placebo,Pbo,Placebo,USA,2/8/2014,-13,6,E07,ARTHRALGIA,KNEE PAIN,,ARTHRALGIA,,HLT_0375,,HLGT_0610,,MUSCULOSKELETAL AND CONNECTIVE TISSUE DISORDERS,,MUSCULOSKELETAL AND CONNECTIVE TISSUE DISORDERS,,MILD,N,,NONE,NOT RECOVERED/NOT RESOLVED,N,N,N,N,N,N,N,7/9/2014,7/6/2014,,136,,Phase 2
CDISCPILOT01,AE,01-704-1010,1010,2/21/2014,7/9/2014,2/21/2014,7/8/2014,,2014-07-09T11:00,,,704,80,YEARS,M,WHITE,NOT HISPANIC OR LATINO,Pbo,Placebo,Pbo,Placebo,USA,2/8/2014,-13,7,E08,CONTUSION,BRUISE OF HEAD,,CONTUSION,,HLT_0713,,HLGT_0381,,"INJURY, POISONING AND PROCEDURAL COMPLICATIONS",,"INJURY, POISONING AND PROCEDURAL COMPLICATIONS",,MILD,N,,NONE,NOT RECOVERED/NOT RESOLVED,N,N,N,N,N,N,N,7/9/2014,7/6/2014,,136,,Phase 2
CDISCPILOT01,AE,01-704-1010,1010,2/21/2014,7/9/2014,2/21/2014,7/8/2014,,2014-07-09T11:00,,,704,80,YEARS,M,WHITE,NOT HISPANIC OR LATINO,Pbo,Placebo,Pbo,Placebo,USA,2/8/2014,-13,1,E01,CYSTITIS,BLADDER INFECTION,,CYSTITIS,,HLT_0739,,HLGT_0129,,INFECTIONS AND INFESTATIONS,,INFECTIONS AND INFESTATIONS,,MILD,N,,NONE,RECOVERED/RESOLVED,N,N,N,N,N,N,N,3/8/2014,2/27/2014,3/6/2014,7,14,Phase 1
CDISCPILOT01,AE,01-704-1010,1010,2/21/2014,7/9/2014,2/21/2014,7/8/2014,,2014-07-09T11:00,,,704,80,YEARS,M,WHITE,NOT HISPANIC OR LATINO,Pbo,Placebo,Pbo,Placebo,USA,2/8/2014,-13,3,E04,DIARRHOEA,DIARRHEA,,DIARRHOEA,,HLT_0148,,HLGT_0588,,GASTROINTESTINAL DISORDERS,,GASTROINTESTINAL DISORDERS,,MILD,N,,NONE,RECOVERED/RESOLVED,N,N,N,N,N,N,N,7/9/2014,7/5/2014,7/6/2014,135,136,Phase 2
CDISCPILOT01,AE,01-704-1010,1010,2/21/2014,7/9/2014,2/21/2014,7/8/2014,,2014-07-09T11:00,,,704,80,YEARS,M,WHITE,NOT HISPANIC OR LATINO,Pbo,Placebo,Pbo,Placebo,USA,2/8/2014,-13,4,E05,EXCORIATION,ABRASION NOS,,EXCORIATION,,HLT_0738,,HLGT_0511,,"INJURY, POISONING AND PROCEDURAL COMPLICATIONS",,"INJURY, POISONING AND PROCEDURAL COMPLICATIONS",,MILD,N,,NONE,NOT RECOVERED/NOT RESOLVED,N,N,N,N,N,N,N,7/9/2014,7/6/2014,,136,,Phase 2
CDISCPILOT01,AE,01-704-1010,1010,2/21/2014,7/9/2014,2/21/2014,7/8/2014,,2014-07-09T11:00,,,704,80,YEARS,M,WHITE,NOT HISPANIC OR LATINO,Pbo,Placebo,Pbo,Placebo,USA,2/8/2014,-13,5,E06,SKIN LACERATION,SKIN TEAR,,SKIN LACERATION,,HLT_0075,,HLGT_0118,,"INJURY, POISONING AND PROCEDURAL COMPLICATIONS",,"INJURY, POISONING AND PROCEDURAL COMPLICATIONS",,MILD,N,,NONE,NOT RECOVERED/NOT RESOLVED,N,N,N,N,N,N,N,7/9/2014,7/6/2014,,136,,Phase 2
CDISCPILOT01,AE,01-704-1010,1010,2/21/2014,7/9/2014,2/21/2014,7/8/2014,,2014-07-09T11:00,,,704,80,YEARS,M,WHITE,NOT HISPANIC OR LATINO,Pbo,Placebo,Pbo,Placebo,USA,2/8/2014,-13,2,E03,VOMITING,VOMITING,,VOMITING,,HLT_0016,,HLGT_0350,,GASTROINTESTINAL DISORDERS,,GASTROINTESTINAL DISORDERS,,MILD,N,,NONE,RECOVERED/RESOLVED,N,N,N,N,N,N,N,7/9/2014,7/5/2014,7/6/2014,135,136,Phase 2
CDISCPILOT01,AE,01-704-1017,1017,10/6/2013,11/24/2013,10/6/2013,11/18/2013,,12/6/2013,,,704,77,YEARS,M,WHITE,NOT HISPANIC OR LATINO,Xan_Hi,Xanomeline High Dose,Xan_Hi,Xanomeline High Dose,USA,9/20/2013,-16,4,E16,CARDIAC DISORDER,CARDIAC DISORDER,,CARDIAC DISORDER,,HLT_0507,,HLGT_0126,,CARDIAC DISORDERS,,CARDIAC DISORDERS,,MILD,N,,NONE,NOT RECOVERED/NOT RESOLVED,N,N,N,N,N,N,N,11/9/2013,11/1/2013,,27,,Phase 1
CDISCPILOT01,AE,01-704-1017,1017,10/6/2013,11/24/2013,10/6/2013,11/18/2013,,12/6/2013,,,704,77,YEARS,M,WHITE,NOT HISPANIC OR LATINO,Xan_Hi,Xanomeline High Dose,Xan_Hi,Xanomeline High Dose,USA,9/20/2013,-16,3,E13,INFLUENZA,FLU,,INFLUENZA,,HLT_0125,,HLGT_0081,,INFECTIONS AND INFESTATIONS,,INFECTIONS AND INFESTATIONS,,MILD,N,,NONE,RECOVERED/RESOLVED,N,N,N,N,N,N,N,11/9/2013,11/1/2013,11/8/2013,27,34,Phase 1
CDISCPILOT01,AE,01-704-1017,1017,10/6/2013,11/24/2013,10/6/2013,11/18/2013,,12/6/2013,,,704,77,YEARS,M,WHITE,NOT HISPANIC OR LATINO,Xan_Hi,Xanomeline High Dose,Xan_Hi,Xanomeline High Dose,USA,9/20/2013,-16,1,E14,MYOCARDIAL INFARCTION,MYOCARDIAL INFARCTION,,MYOCARDIAL INFARCTION,,HLT_0649,,HLGT_0688,,CARDIAC DISORDERS,,CARDIAC DISORDERS,,MILD,N,,NONE,NOT RECOVERED/NOT RESOLVED,N,N,N,N,N,N,N,10/19/2013,10/19/2013,,14,,Phase 1
CDISCPILOT01,AE,01-704-1017,1017,10/6/2013,11/24/2013,10/6/2013,11/18/2013,,12/6/2013,,,704,77,YEARS,M,WHITE,NOT HISPANIC OR LATINO,Xan_Hi,Xanomeline High Dose,Xan_Hi,Xanomeline High Dose,USA,9/20/2013,-16,6,E12,PRURITUS,ITCHING,,PRURITUS,,HLT_0778,,HLGT_0695,,SKIN AND SUBCUTANEOUS TISSUE DISORDERS,,SKIN AND SUBCUTANEOUS TISSUE DISORDERS,,MILD,N,,PROBABLE,NOT RECOVERED/NOT RESOLVED,N,N,N,N,N,N,N,11/9/2013,11/5/2013,11/22/2013,31,48,Phase 1
CDISCPILOT01,AE,01-704-1017,1017,10/6/2013,11/24/2013,10/6/2013,11/18/2013,,12/6/2013,,,704,77,YEARS,M,WHITE,NOT HISPANIC OR LATINO,Xan_Hi,Xanomeline High Dose,Xan_Hi,Xanomeline High Dose,USA,9/20/2013,-16,8,E12,PRURITUS,ITCHING,,PRURITUS,,HLT_0778,,HLGT_0695,,SKIN AND SUBCUTANEOUS TISSUE DISORDERS,,SKIN AND SUBCUTANEOUS TISSUE DISORDERS,,MILD,N,,PROBABLE,RECOVERED/RESOLVED,N,N,N,N,N,N,N,11/24/2013,11/5/2013,11/22/2013,31,48,Phase 1
CDISCPILOT01,AE,01-704-1017,1017,10/6/2013,11/24/2013,10/6/2013,11/18/2013,,12/6/2013,,,704,77,YEARS,M,WHITE,NOT HISPANIC OR LATINO,Xan_Hi,Xanomeline High Dose,Xan_Hi,Xanomeline High Dose,USA,9/20/2013,-16,5,E11,RASH,RASH,,RASH,,HLT_0762,,HLGT_0198,,SKIN AND SUBCUTANEOUS TISSUE DISORDERS,,SKIN AND SUBCUTANEOUS TISSUE DISORDERS,,MILD,N,,PROBABLE,NOT RECOVERED/NOT RESOLVED,N,N,N,N,N,N,N,11/9/2013,11/5/2013,11/22/2013,31,48,Phase 1
CDISCPILOT01,AE,01-704-1017,1017,10/6/2013,11/24/2013,10/6/2013,11/18/2013,,12/6/2013,,,704,77,YEARS,M,WHITE,NOT HISPANIC OR LATINO,Xan_Hi,Xanomeline High Dose,Xan_Hi,Xanomeline High Dose,USA,9/20/2013,-16,7,E11,RASH,RASH,,RASH,,HLT_0762,,HLGT_0198,,SKIN AND SUBCUTANEOUS TISSUE DISORDERS,,SKIN AND SUBCUTANEOUS TISSUE DISORDERS,,MILD,N,,PROBABLE,RECOVERED/RESOLVED,N,N,N,N,N,N,N,11/24/2013,11/5/2013,11/22/2013,31,48,Phase 1
CDISCPILOT01,AE,01-704-1017,1017,10/6/2013,11/24/2013,10/6/2013,11/18/2013,,12/6/2013,,,704,77,YEARS,M,WHITE,NOT HISPANIC OR LATINO,Xan_Hi,Xanomeline High Dose,Xan_Hi,Xanomeline High Dose,USA,9/20/2013,-16,2,E15,VENTRICULAR SEPTAL DEFECT,VENTRICULAR SEPTAL DEFECT,,VENTRICULAR SEPTAL DEFECT,,HLT_0589,,HLGT_0747,,"CONGENITAL, FAMILIAL AND GENETIC DISORDERS",,"CONGENITAL, FAMILIAL AND GENETIC DISORDERS",,MILD,N,,NONE,NOT RECOVERED/NOT RESOLVED,N,N,N,N,N,N,N,10/19/2013,10/19/2013,,14,,Phase 1
CDISCPILOT01,AE,01-704-1025,1025,9/27/2013,11/29/2013,9/27/2013,10/24/2013,,2013-11-29T12:00,,,704,81,YEARS,F,WHITE,NOT HISPANIC OR LATINO,Xan_Lo,Xanomeline Low Dose,Xan_Lo,Xanomeline Low Dose,USA,9/18/2013,-9,3,E05,ELECTROCARDIOGRAM ST SEGMENT DEPRESSIO,ST SEGMENT DEPRESSED,,ELECTROCARDIOGRAM ST SEGMENT DEPRESSIO,,HLT_0610,,HLGT_0220,,INVESTIGATIONS,,INVESTIGATIONS,,MILD,N,,POSSIBLE,NOT RECOVERED/NOT RESOLVED,N,N,N,N,N,N,N,10/11/2013,10/11/2013,10/25/2013,15,29,Phase 1
CDISCPILOT01,AE,01-704-1025,1025,9/27/2013,11/29/2013,9/27/2013,10/24/2013,,2013-11-29T12:00,,,704,81,YEARS,F,WHITE,NOT HISPANIC OR LATINO,Xan_Lo,Xanomeline Low Dose,Xan_Lo,Xanomeline Low Dose,USA,9/18/2013,-9,5,E05,ELECTROCARDIOGRAM ST SEGMENT DEPRESSIO,ST SEGMENT DEPRESSED,,ELECTROCARDIOGRAM ST SEGMENT DEPRESSIO,,HLT_0610,,HLGT_0220,,INVESTIGATIONS,,INVESTIGATIONS,,MILD,N,,POSSIBLE,RECOVERED/RESOLVED,N,N,N,N,N,N,N,11/29/2013,10/11/2013,10/25/2013,15,29,Phase 1
CDISCPILOT01,AE,01-704-1025,1025,9/27/2013,11/29/2013,9/27/2013,10/24/2013,,2013-11-29T12:00,,,704,81,YEARS,F,WHITE,NOT HISPANIC OR LATINO,Xan_Lo,Xanomeline Low Dose,Xan_Lo,Xanomeline Low Dose,USA,9/18/2013,-9,2,E02,PALPITATIONS,PALPITATIONS,,PALPITATIONS,,HLT_0493,,HLGT_0593,,CARDIAC DISORDERS,,CARDIAC DISORDERS,,MODERATE,N,,REMOTE,RECOVERED/RESOLVED,N,N,N,N,N,N,N,10/11/2013,9/28/2013,9/30/2013,2,4,Phase 1
CDISCPILOT01,AE,01-704-1025,1025,9/27/2013,11/29/2013,9/27/2013,10/24/2013,,2013-11-29T12:00,,,704,81,YEARS,F,WHITE,NOT HISPANIC OR LATINO,Xan_Lo,Xanomeline Low Dose,Xan_Lo,Xanomeline Low Dose,USA,9/18/2013,-9,1,E01,VERTIGO,VERTIGO,,VERTIGO,,HLT_0255,,HLGT_0147,,EAR AND LABYRINTH DISORDERS,,EAR AND LABYRINTH DISORDERS,,MODERATE,N,,POSSIBLE,RECOVERED/RESOLVED,N,N,N,N,N,N,N,10/11/2013,9/28/2013,9/30/2013,2,4,Phase 1
CDISCPILOT01,AE,01-704-1025,1025,9/27/2013,11/29/2013,9/27/2013,10/24/2013,,2013-11-29T12:00,,,704,81,YEARS,F,WHITE,NOT HISPANIC OR LATINO,Xan_Lo,Xanomeline Low Dose,Xan_Lo,Xanomeline Low Dose,USA,9/18/2013,-9,4,E06,WOLFF-PARKINSON-WHITE SYNDROME,WOLFF-PARKINSON-WHITE SYNDROM,,WOLFF-PARKINSON-WHITE SYNDROME,,HLT_0612,,HLGT_0218,,CARDIAC DISORDERS,,CARDIAC DISORDERS,,MILD,N,,POSSIBLE,NOT RECOVERED/NOT RESOLVED,N,N,N,N,N,N,N,10/25/2013,10/25/2013,11/29/2013,29,64,Phase 1
CDISCPILOT01,AE,01-704-1025,1025,9/27/2013,11/29/2013,9/27/2013,10/24/2013,,2013-11-29T12:00,,,704,81,YEARS,F,WHITE,NOT HISPANIC OR LATINO,Xan_Lo,Xanomeline Low Dose,Xan_Lo,Xanomeline Low Dose,USA,9/18/2013,-9,6,E06,WOLFF-PARKINSON-WHITE SYNDROME,WOLFF-PARKINSON-WHITE SYNDROM,,WOLFF-PARKINSON-WHITE SYNDROME,,HLT_0612,,HLGT_0218,,CARDIAC DISORDERS,,CARDIAC DISORDERS,,MILD,N,,POSSIBLE,RECOVERED/RESOLVED,N,N,N,N,N,N,N,11/29/2013,10/25/2013,11/29/2013,29,64,Phase 1
CDISCPILOT01,AE,01-704-1065,1065,10/24/2013,12/24/2013,10/24/2013,12/22/2013,,2/17/2014,,,704,75,YEARS,M,WHITE,NOT HISPANIC OR LATINO,Xan_Hi,Xanomeline High Dose,Xan_Hi,Xanomeline High Dose,USA,10/17/2013,-7,1,E13,ABDOMINAL DISCOMFORT,ABDOMINAL DISCOMFORT,,ABDOMINAL DISCOMFORT,,HLT_0012,,HLGT_0332,,GASTROINTESTINAL DISORDERS,,GASTROINTESTINAL DISORDERS,,MILD,N,,REMOTE,NOT RECOVERED/NOT RESOLVED,N,N,N,N,N,N,N,11/7/2013,10/26/2013,,3,,Phase 1
CDISCPILOT01,AE,01-704-1065,1065,10/24/2013,12/24/2013,10/24/2013,12/22/2013,,2/17/2014,,,704,75,YEARS,M,WHITE,NOT HISPANIC OR LATINO,Xan_Hi,Xanomeline High Dose,Xan_Hi,Xanomeline High Dose,USA,10/17/2013,-7,4,E12,APPLICATION SITE IRRITATION,APPLICATION SITE BURNING,,APPLICATION SITE IRRITATION,,HLT_0061,,HLGT_0346,,GENERAL DISORDERS AND ADMINISTRATION SITE CONDITIONS,,GENERAL DISORDERS AND ADMINISTRATION SITE CONDITIONS,,MILD,N,,PROBABLE,NOT RECOVERED/NOT RESOLVED,N,N,N,N,N,N,N,11/25/2013,11/9/2013,,17,,Phase 1
CDISCPILOT01,AE,01-704-1065,1065,10/24/2013,12/24/2013,10/24/2013,12/22/2013,,2/17/2014,,,704,75,YEARS,M,WHITE,NOT HISPANIC OR LATINO,Xan_Hi,Xanomeline High Dose,Xan_Hi,Xanomeline High Dose,USA,10/17/2013,-7,3,E10,APPLICATION SITE PRURITUS,APPLICATION SITE ITCHING,,APPLICATION SITE PRURITUS,,HLT_0317,,HLGT_0338,,GENERAL DISORDERS AND ADMINISTRATION SITE CONDITIONS,,GENERAL DISORDERS AND ADMINISTRATION SITE CONDITIONS,,MODERATE,N,,PROBABLE,NOT RECOVERED/NOT RESOLVED,N,N,N,N,N,N,N,11/7/2013,10/27/2013,,4,,Phase 1
CDISCPILOT01,AE,01-704-1065,1065,10/24/2013,12/24/2013,10/24/2013,12/22/2013,,2/17/2014,,,704,75,YEARS,M,WHITE,NOT HISPANIC OR LATINO,Xan_Hi,Xanomeline High Dose,Xan_Hi,Xanomeline High Dose,USA,10/17/2013,-7,7,E16,CHILLS,CHILLS,,CHILLS,,HLT_0586,,HLGT_0161,,GENERAL DISORDERS AND ADMINISTRATION SITE CONDITIONS,,GENERAL DISORDERS AND ADMINISTRATION SITE CONDITIONS,,MILD,N,,REMOTE,RECOVERED/RESOLVED,N,N,N,N,N,N,N,11/25/2013,11/17/2013,11/17/2013,25,25,Phase 1
CDISCPILOT01,AE,01-704-1065,1065,10/24/2013,12/24/2013,10/24/2013,12/22/2013,,2/17/2014,,,704,75,YEARS,M,WHITE,NOT HISPANIC OR LATINO,Xan_Hi,Xanomeline High Dose,Xan_Hi,Xanomeline High Dose,USA,10/17/2013,-7,9,E18,DIARRHOEA,DIARRHEA,,DIARRHOEA,,HLT_0148,,HLGT_0588,,GASTROINTESTINAL DISORDERS,,GASTROINTESTINAL DISORDERS,,MILD,N,,REMOTE,RECOVERED/RESOLVED,N,N,N,N,N,N,N,12/20/2013,12/15/2013,12/15/2013,53,53,Phase 1
CDISCPILOT01,AE,01-704-1065,1065,10/24/2013,12/24/2013,10/24/2013,12/22/2013,,2/17/2014,,,704,75,YEARS,M,WHITE,NOT HISPANIC OR LATINO,Xan_Hi,Xanomeline High Dose,Xan_Hi,Xanomeline High Dose,USA,10/17/2013,-7,8,E17,DIZZINESS,DIZZINESS,,DIZZINESS,,HLT_0619,,HLGT_0751,,NERVOUS SYSTEM DISORDERS,,NERVOUS SYSTEM DISORDERS,,MILD,N,,REMOTE,RECOVERED/RESOLVED,N,N,N,N,N,N,N,11/25/2013,11/17/2013,11/17/2013,25,25,Phase 1
CDISCPILOT01,AE,01-704-1065,1065,10/24/2013,12/24/2013,10/24/2013,12/22/2013,,2/17/2014,,,704,75,YEARS,M,WHITE,NOT HISPANIC OR LATINO,Xan_Hi,Xanomeline High Dose,Xan_Hi,Xanomeline High Dose,USA,10/17/2013,-7,6,E15,HYPERHIDROSIS,PERSPIRATION EXCESSIVE,,HYPERHIDROSIS,,HLT_0587,,HLGT_0005,,SKIN AND SUBCUTANEOUS TISSUE DISORDERS,,SKIN AND SUBCUTANEOUS TISSUE DISORDERS,,MILD,N,,POSSIBLE,NOT RECOVERED/NOT RESOLVED,N,N,N,N,N,N,N,11/25/2013,11/9/2013,,17,,Phase 1
CDISCPILOT01,AE,01-704-1065,1065,10/24/2013,12/24/2013,10/24/2013,12/22/2013,,2/17/2014,,,704,75,YEARS,M,WHITE,NOT HISPANIC OR LATINO,Xan_Hi,Xanomeline High Dose,Xan_Hi,Xanomeline High Dose,USA,10/17/2013,-7,5,E14,MALAISE,MALAISE,,MALAISE,,HLT_0456,,HLGT_0178,,GENERAL DISORDERS AND ADMINISTRATION SITE CONDITIONS,,GENERAL DISORDERS AND ADMINISTRATION SITE CONDITIONS,,MILD,N,,POSSIBLE,NOT RECOVERED/NOT RESOLVED,N,N,N,N,N,N,N,11/25/2013,11/9/2013,,17,,Phase 1
CDISCPILOT01,AE,01-704-1065,1065,10/24/2013,12/24/2013,10/24/2013,12/22/2013,,2/17/2014,,,704,75,YEARS,M,WHITE,NOT HISPANIC OR LATINO,Xan_Hi,Xanomeline High Dose,Xan_Hi,Xanomeline High Dose,USA,10/17/2013,-7,2,E07,RASH,RASH,,RASH,,HLT_0762,,HLGT_0198,,SKIN AND SUBCUTANEOUS TISSUE DISORDERS,,SKIN AND SUBCUTANEOUS TISSUE DISORDERS,,MILD,N,,PROBABLE,NOT RECOVERED/NOT RESOLVED,N,N,N,N,N,N,N,11/7/2013,10/27/2013,,4,,Phase 1
CDISCPILOT01,AE,01-704-1065,1065,10/24/2013,12/24/2013,10/24/2013,12/22/2013,,2/17/2014,,,704,75,YEARS,M,WHITE,NOT HISPANIC OR LATINO,Xan_Hi,Xanomeline High Dose,Xan_Hi,Xanomeline High Dose,USA,10/17/2013,-7,10,E19,SINUS BRADYCARDIA,BRADYCARDIA SINUS,,SINUS BRADYCARDIA,,HLT_0644,,HLGT_0500,,CARDIAC DISORDERS,,CARDIAC DISORDERS,,MILD,N,,NONE,NOT RECOVERED/NOT RESOLVED,N,N,N,N,N,N,N,12/24/2013,12/24/2013,,62,,Phase 1
CDISCPILOT01,AE,01-704-1074,1074,1/22/2014,3/31/2014,1/22/2014,3/20/2014,,2014-03-31T10:30,,,704,80,YEARS,F,WHITE,NOT HISPANIC OR LATINO,Xan_Hi,Xanomeline High Dose,Xan_Hi,Xanomeline High Dose,USA,1/19/2014,-3,2,E09,ERYTHEMA,SKIN RED,,ERYTHEMA,,HLT_0284,,HLGT_0192,,SKIN AND SUBCUTANEOUS TISSUE DISORDERS,,SKIN AND SUBCUTANEOUS TISSUE DISORDERS,,MILD,N,,PROBABLE,NOT RECOVERED/NOT RESOLVED,N,N,N,N,N,N,N,2/9/2014,2/9/2014,,19,,Phase 1
CDISCPILOT01,AE,01-704-1074,1074,1/22/2014,3/31/2014,1/22/2014,3/20/2014,,2014-03-31T10:30,,,704,80,YEARS,F,WHITE,NOT HISPANIC OR LATINO,Xan_Hi,Xanomeline High Dose,Xan_Hi,Xanomeline High Dose,USA,1/19/2014,-3,1,E08,PRURITUS,ITCHING,,PRURITUS,,HLT_0778,,HLGT_0695,,SKIN AND SUBCUTANEOUS TISSUE DISORDERS,,SKIN AND SUBCUTANEOUS TISSUE DISORDERS,,MILD,N,,PROBABLE,NOT RECOVERED/NOT RESOLVED,N,N,N,N,N,N,N,1/22/2014,1/22/2014,,1,,Phase 1
CDISCPILOT01,AE,01-704-1093,1093,3/15/2013,6/20/2013,3/15/2013,6/17/2013,,12/25/2013,,,704,79,YEARS,M,WHITE,NOT HISPANIC OR LATINO,Xan_Hi,Xanomeline High Dose,Xan_Hi,Xanomeline High Dose,USA,2/22/2013,-21,1,E02,BLOOD GLUCOSE INCREASED,GLUCOSE INCREASED,,BLOOD GLUCOSE INCREASED,,HLT_0450,,HLGT_0188,,INVESTIGATIONS,,INVESTIGATIONS,,MILD,N,,NONE,NOT RECOVERED/NOT RESOLVED,N,N,N,N,N,N,N,3/30/2013,3/30/2013,4/13/2013,16,30,Phase 1
CDISCPILOT01,AE,01-704-1093,1093,3/15/2013,6/20/2013,3/15/2013,6/17/2013,,12/25/2013,,,704,79,YEARS,M,WHITE,NOT HISPANIC OR LATINO,Xan_Hi,Xanomeline High Dose,Xan_Hi,Xanomeline High Dose,USA,2/22/2013,-21,2,E02,BLOOD GLUCOSE INCREASED,GLUCOSE INCREASED,,BLOOD GLUCOSE INCREASED,,HLT_0450,,HLGT_0188,,INVESTIGATIONS,,INVESTIGATIONS,,MILD,N,,NONE,RECOVERED/RESOLVED,N,N,N,N,N,N,N,4/17/2013,3/30/2013,4/13/2013,16,30,Phase 1
CDISCPILOT01,AE,01-704-1093,1093,3/15/2013,6/20/2013,3/15/2013,6/17/2013,,12/25/2013,,,704,79,YEARS,M,WHITE,NOT HISPANIC OR LATINO,Xan_Hi,Xanomeline High Dose,Xan_Hi,Xanomeline High Dose,USA,2/22/2013,-21,4,E06,PRURITUS,ITCHING,,PRURITUS,,HLT_0778,,HLGT_0695,,SKIN AND SUBCUTANEOUS TISSUE DISORDERS,,SKIN AND SUBCUTANEOUS TISSUE DISORDERS,,MILD,N,,PROBABLE,NOT RECOVERED/NOT RESOLVED,N,N,N,N,N,N,N,5/11/2013,5/4/2013,,51,,Phase 1
CDISCPILOT01,AE,01-704-1093,1093,3/15/2013,6/20/2013,3/15/2013,6/17/2013,,12/25/2013,,,704,79,YEARS,M,WHITE,NOT HISPANIC OR LATINO,Xan_Hi,Xanomeline High Dose,Xan_Hi,Xanomeline High Dose,USA,2/22/2013,-21,3,E05,RASH,RASH,,RASH,,HLT_0762,,HLGT_0198,,SKIN AND SUBCUTANEOUS TISSUE DISORDERS,,SKIN AND SUBCUTANEOUS TISSUE DISORDERS,,MILD,N,,PROBABLE,NOT RECOVERED/NOT RESOLVED,N,N,N,N,N,N,N,5/11/2013,5/4/2013,,51,,Phase 1
CDISCPILOT01,AE,01-704-1114,1114,1/23/2013,7/8/2013,1/23/2013,7/7/2013,,2013-07-08T09:56,,,704,77,YEARS,M,WHITE,NOT HISPANIC OR LATINO,Xan_Lo,Xanomeline Low Dose,Xan_Lo,Xanomeline Low Dose,USA,1/9/2013,-14,1,E06,ERYTHEMA,REDNESS,,ERYTHEMA,,HLT_0284,,HLGT_0192,,SKIN AND SUBCUTANEOUS TISSUE DISORDERS,,SKIN AND SUBCUTANEOUS TISSUE DISORDERS,,MILD,N,,PROBABLE,RECOVERED/RESOLVED,N,N,N,N,N,N,N,3/13/2013,2/21/2013,2/23/2013,30,32,Phase 1
CDISCPILOT01,AE,01-704-1114,1114,1/23/2013,7/8/2013,1/23/2013,7/7/2013,,2013-07-08T09:56,,,704,77,YEARS,M,WHITE,NOT HISPANIC OR LATINO,Xan_Lo,Xanomeline Low Dose,Xan_Lo,Xanomeline Low Dose,USA,1/9/2013,-14,5,E07,INFLUENZA,FLU,,INFLUENZA,,HLT_0125,,HLGT_0081,,INFECTIONS AND INFESTATIONS,,INFECTIONS AND INFESTATIONS,,MILD,N,,NONE,RECOVERED/RESOLVED,N,N,N,N,N,N,N,6/16/2013,6/7/2013,6/13/2013,136,142,Phase 2
CDISCPILOT01,AE,01-704-1114,1114,1/23/2013,7/8/2013,1/23/2013,7/7/2013,,2013-07-08T09:56,,,704,77,YEARS,M,WHITE,NOT HISPANIC OR LATINO,Xan_Lo,Xanomeline Low Dose,Xan_Lo,Xanomeline Low Dose,USA,1/9/2013,-14,2,E03,OEDEMA,EDEMA,,OEDEMA,,HLT_0656,,HLGT_0036,,GENERAL DISORDERS AND ADMINISTRATION SITE CONDITIONS,,GENERAL DISORDERS AND ADMINISTRATION SITE CONDITIONS,,MILD,N,,PROBABLE,NOT RECOVERED/NOT RESOLVED,N,N,N,N,N,N,N,3/13/2013,2/23/2013,,32,,Phase 1
CDISCPILOT01,AE,01-704-1114,1114,1/23/2013,7/8/2013,1/23/2013,7/7/2013,,2013-07-08T09:56,,,704,77,YEARS,M,WHITE,NOT HISPANIC OR LATINO,Xan_Lo,Xanomeline Low Dose,Xan_Lo,Xanomeline Low Dose,USA,1/9/2013,-14,4,E05,PRURITUS,ITCHING,,PRURITUS,,HLT_0778,,HLGT_0695,,SKIN AND SUBCUTANEOUS TISSUE DISORDERS,,SKIN AND SUBCUTANEOUS TISSUE DISORDERS,,MILD,N,,PROBABLE,NOT RECOVERED/NOT RESOLVED,N,N,N,N,N,N,N,3/26/2013,3/23/2013,,60,,Phase 1
CDISCPILOT01,AE,01-704-1114,1114,1/23/2013,7/8/2013,1/23/2013,7/7/2013,,2013-07-08T09:56,,,704,77,YEARS,M,WHITE,NOT HISPANIC OR LATINO,Xan_Lo,Xanomeline Low Dose,Xan_Lo,Xanomeline Low Dose,USA,1/9/2013,-14,3,E04,RASH,RASH,,RASH,,HLT_0762,,HLGT_0198,,SKIN AND SUBCUTANEOUS TISSUE DISORDERS,,SKIN AND SUBCUTANEOUS TISSUE DISORDERS,,MILD,N,,PROBABLE,NOT RECOVERED/NOT RESOLVED,N,N,N,N,N,N,N,3/26/2013,3/23/2013,,60,,Phase 1
CDISCPILOT01,AE,01-704-1120,1120,12/2/2013,2/3/2014,12/2/2013,2/1/2014,,3/10/2014,,,704,71,YEARS,F,WHITE,NOT HISPANIC OR LATINO,Xan_Lo,Xanomeline Low Dose,Xan_Lo,Xanomeline Low Dose,USA,11/18/2013,-14,2,E02,NASOPHARYNGITIS,COLD,,NASOPHARYNGITIS,,HLT_0036,,HLGT_0709,,INFECTIONS AND INFESTATIONS,,INFECTIONS AND INFESTATIONS,,MILD,N,,NONE,NOT RECOVERED/NOT RESOLVED,N,N,N,N,N,N,N,12/29/2013,12/28/2013,2/3/2014,27,64,Phase 1
CDISCPILOT01,AE,01-704-1120,1120,12/2/2013,2/3/2014,12/2/2013,2/1/2014,,3/10/2014,,,704,71,YEARS,F,WHITE,NOT HISPANIC OR LATINO,Xan_Lo,Xanomeline Low Dose,Xan_Lo,Xanomeline Low Dose,USA,11/18/2013,-14,6,E02,NASOPHARYNGITIS,COLD,,NASOPHARYNGITIS,,HLT_0036,,HLGT_0709,,INFECTIONS AND INFESTATIONS,,INFECTIONS AND INFESTATIONS,,MILD,N,,NONE,RECOVERED/RESOLVED,N,N,N,N,N,N,N,3/10/2014,12/28/2013,2/3/2014,27,64,Phase 1
CDISCPILOT01,AE,01-704-1120,1120,12/2/2013,2/3/2014,12/2/2013,2/1/2014,,3/10/2014,,,704,71,YEARS,F,WHITE,NOT HISPANIC OR LATINO,Xan_Lo,Xanomeline Low Dose,Xan_Lo,Xanomeline Low Dose,USA,11/18/2013,-14,4,E04,PRURITUS,ITCHING,,PRURITUS,,HLT_0778,,HLGT_0695,,SKIN AND SUBCUTANEOUS TISSUE DISORDERS,,SKIN AND SUBCUTANEOUS TISSUE DISORDERS,,MILD,N,,PROBABLE,NOT RECOVERED/NOT RESOLVED,N,N,N,N,N,N,N,1/27/2014,1/27/2014,,57,,Phase 1
CDISCPILOT01,AE,01-704-1120,1120,12/2/2013,2/3/2014,12/2/2013,2/1/2014,,3/10/2014,,,704,71,YEARS,F,WHITE,NOT HISPANIC OR LATINO,Xan_Lo,Xanomeline Low Dose,Xan_Lo,Xanomeline Low Dose,USA,11/18/2013,-14,5,E04,PRURITUS,ITCHING,,PRURITUS,,HLT_0778,,HLGT_0695,,SKIN AND SUBCUTANEOUS TISSUE DISORDERS,,SKIN AND SUBCUTANEOUS TISSUE DISORDERS,,MODERATE,N,,PROBABLE,NOT RECOVERED/NOT RESOLVED,N,N,N,N,N,N,N,2/3/2014,1/27/2014,,57,,Phase 1
CDISCPILOT01,AE,01-704-1120,1120,12/2/2013,2/3/2014,12/2/2013,2/1/2014,,3/10/2014,,,704,71,YEARS,F,WHITE,NOT HISPANIC OR LATINO,Xan_Lo,Xanomeline Low Dose,Xan_Lo,Xanomeline Low Dose,USA,11/18/2013,-14,1,E01,RASH,RASH,,RASH,,HLT_0762,,HLGT_0198,,SKIN AND SUBCUTANEOUS TISSUE DISORDERS,,SKIN AND SUBCUTANEOUS TISSUE DISORDERS,,MILD,N,,PROBABLE,NOT RECOVERED/NOT RESOLVED,N,N,N,N,N,N,N,12/29/2013,12/23/2013,,22,,Phase 1
CDISCPILOT01,AE,01-704-1120,1120,12/2/2013,2/3/2014,12/2/2013,2/1/2014,,3/10/2014,,,704,71,YEARS,F,WHITE,NOT HISPANIC OR LATINO,Xan_Lo,Xanomeline Low Dose,Xan_Lo,Xanomeline Low Dose,USA,11/18/2013,-14,3,E01,RASH,RASH,,RASH,,HLT_0762,,HLGT_0198,,SKIN AND SUBCUTANEOUS TISSUE DISORDERS,,SKIN AND SUBCUTANEOUS TISSUE DISORDERS,,MODERATE,N,,PROBABLE,NOT RECOVERED/NOT RESOLVED,N,N,N,N,N,N,N,1/27/2014,12/23/2013,,22,,Phase 1
CDISCPILOT01,DM,01-704-1127,1127,10/2/2013,3/31/2014,10/2/2013,3/31/2014,,2014-03-31T11:30,,,704,84,YEARS,F,WHITE,NOT HISPANIC OR LATINO,Pbo,Placebo,Pbo,Placebo,USA,9/16/2013,-16,,,,,,,,,,,,,,,,,,,,,,,,,,,,,,,,,Phase 1
CDISCPILOT01,AE,01-704-1135,1135,10/31/2013,5/16/2014,10/31/2013,5/16/2014,,2014-05-16T09:45,,,704,74,YEARS,F,WHITE,NOT HISPANIC OR LATINO,Xan_Lo,Xanomeline Low Dose,Xan_Lo,Xanomeline Low Dose,USA,10/23/2013,-8,1,E01,RASH,RASH,,RASH,,HLT_0762,,HLGT_0198,,SKIN AND SUBCUTANEOUS TISSUE DISORDERS,,SKIN AND SUBCUTANEOUS TISSUE DISORDERS,,MILD,N,,,NOT RECOVERED/NOT RESOLVED,N,N,N,N,N,N,N,12/11/2013,12/8/2013,,39,,Phase 1
CDISCPILOT01,AE,01-704-1135,1135,10/31/2013,5/16/2014,10/31/2013,5/16/2014,,2014-05-16T09:45,,,704,74,YEARS,F,WHITE,NOT HISPANIC OR LATINO,Xan_Lo,Xanomeline Low Dose,Xan_Lo,Xanomeline Low Dose,USA,10/23/2013,-8,2,E01,RASH,RASH,,RASH,,HLT_0762,,HLGT_0198,,SKIN AND SUBCUTANEOUS TISSUE DISORDERS,,SKIN AND SUBCUTANEOUS TISSUE DISORDERS,,SEVERE,N,,,NOT RECOVERED/NOT RESOLVED,N,N,N,N,N,N,N,2/19/2014,12/8/2013,,39,,Phase 1
CDISCPILOT01,AE,01-704-1164,1164,9/19/2012,4/4/2013,9/19/2012,4/4/2013,,4/4/2013,,,704,67,YEARS,F,WHITE,NOT HISPANIC OR LATINO,Pbo,Placebo,Pbo,Placebo,USA,9/11/2012,-8,1,E02,INFLUENZA,FLU,,INFLUENZA,,HLT_0125,,HLGT_0081,,INFECTIONS AND INFESTATIONS,,INFECTIONS AND INFESTATIONS,,MILD,N,,NONE,NOT RECOVERED/NOT RESOLVED,N,N,N,N,N,N,N,10/4/2012,9/27/2012,10/7/2012,9,19,Phase 1
CDISCPILOT01,AE,01-704-1164,1164,9/19/2012,4/4/2013,9/19/2012,4/4/2013,,4/4/2013,,,704,67,YEARS,F,WHITE,NOT HISPANIC OR LATINO,Pbo,Placebo,Pbo,Placebo,USA,9/11/2012,-8,2,E02,INFLUENZA,FLU,,INFLUENZA,,HLT_0125,,HLGT_0081,,INFECTIONS AND INFESTATIONS,,INFECTIONS AND INFESTATIONS,,MILD,N,,NONE,RECOVERED/RESOLVED,N,N,N,N,N,N,N,10/21/2012,9/27/2012,10/7/2012,9,19,Phase 1
CDISCPILOT01,AE,01-704-1164,1164,9/19/2012,4/4/2013,9/19/2012,4/4/2013,,4/4/2013,,,704,67,YEARS,F,WHITE,NOT HISPANIC OR LATINO,Pbo,Placebo,Pbo,Placebo,USA,9/11/2012,-8,3,E07,OEDEMA PERIPHERAL,SWELLING OF FEET,,OEDEMA PERIPHERAL,,HLT_0661,,HLGT_0137,,GENERAL DISORDERS AND ADMINISTRATION SITE CONDITIONS,,GENERAL DISORDERS AND ADMINISTRATION SITE CONDITIONS,,MILD,N,,NONE,RECOVERED/RESOLVED,N,N,N,N,N,N,N,2/14/2013,2/4/2013,2/13/2013,139,148,Phase 2
CDISCPILOT01,AE,01-704-1218,1218,11/19/2012,5/27/2013,11/19/2012,5/27/2013,,2013-05-27T11:20,,,704,81,YEARS,F,WHITE,NOT HISPANIC OR LATINO,Xan_Lo,Xanomeline Low Dose,Xan_Lo,Xanomeline Low Dose,USA,11/11/2012,-8,1,E05,BLOOD GLUCOSE INCREASED,GLUCOSE INCREASED,,BLOOD GLUCOSE INCREASED,,HLT_0450,,HLGT_0188,,INVESTIGATIONS,,INVESTIGATIONS,,MILD,N,,NONE,NOT RECOVERED/NOT RESOLVED,N,N,N,N,N,N,N,12/30/2012,12/30/2012,,42,,Phase 1
CDISCPILOT01,DM,01-704-1233,1233,3/21/2013,7/14/2013,3/21/2013,4/4/2013,,7/14/2013,,,704,87,YEARS,F,WHITE,NOT HISPANIC OR LATINO,Pbo,Placebo,Pbo,Placebo,USA,3/8/2013,-13,,,,,,,,,,,,,,,,,,,,,,,,,,,,,,,,,Phase 1
CDISCPILOT01,AE,01-704-1241,1241,8/25/2013,10/31/2013,8/25/2013,10/9/2013,,1/22/2014,,,704,86,YEARS,M,WHITE,NOT HISPANIC OR LATINO,Xan_Hi,Xanomeline High Dose,Xan_Hi,Xanomeline High Dose,USA,8/14/2013,-11,2,E03,DYSPNOEA,RESPIRATION LABORED,,DYSPNOEA,,HLT_0296,,HLGT_0255,,"RESPIRATORY, THORACIC AND MEDIASTINAL DISORDERS",,"RESPIRATORY, THORACIC AND MEDIASTINAL DISORDERS",,MILD,N,,NONE,NOT RECOVERED/NOT RESOLVED,N,N,N,N,N,N,N,10/9/2013,9/28/2013,,35,,Phase 1
CDISCPILOT01,AE,01-704-1241,1241,8/25/2013,10/31/2013,8/25/2013,10/9/2013,,1/22/2014,,,704,86,YEARS,M,WHITE,NOT HISPANIC OR LATINO,Xan_Hi,Xanomeline High Dose,Xan_Hi,Xanomeline High Dose,USA,8/14/2013,-11,1,E04,RASH,RASH,,RASH,,HLT_0762,,HLGT_0198,,SKIN AND SUBCUTANEOUS TISSUE DISORDERS,,SKIN AND SUBCUTANEOUS TISSUE DISORDERS,,MODERATE,N,,NONE,NOT RECOVERED/NOT RESOLVED,N,N,N,N,N,N,N,10/9/2013,8/14/2013,,-11,,Phase 1
CDISCPILOT01,DM,01-704-1260,1260,8/30/2012,1/18/2013,8/30/2012,11/4/2012,,1/18/2013,,,704,71,YEARS,F,WHITE,NOT HISPANIC OR LATINO,Pbo,Placebo,Pbo,Placebo,USA,8/23/2012,-7,,,,,,,,,,,,,,,,,,,,,,,,,,,,,,,,,Phase 1
CDISCPILOT01,AE,01-704-1266,1266,10/13/2013,12/6/2013,10/13/2013,12/6/2013,,1/3/2014,,,704,82,YEARS,M,WHITE,NOT HISPANIC OR LATINO,Xan_Hi,Xanomeline High Dose,Xan_Hi,Xanomeline High Dose,USA,10/5/2013,-8,4,E13,ATRIAL FIBRILLATION,ATRIAL FIBRILLATION,,ATRIAL FIBRILLATION,,HLT_0365,,HLGT_0012,,CARDIAC DISORDERS,,CARDIAC DISORDERS,,MILD,N,,NONE,NOT RECOVERED/NOT RESOLVED,N,N,N,N,N,N,N,11/8/2013,11/8/2013,12/6/2013,27,55,Phase 1
CDISCPILOT01,AE,01-704-1266,1266,10/13/2013,12/6/2013,10/13/2013,12/6/2013,,1/3/2014,,,704,82,YEARS,M,WHITE,NOT HISPANIC OR LATINO,Xan_Hi,Xanomeline High Dose,Xan_Hi,Xanomeline High Dose,USA,10/5/2013,-8,13,E13,ATRIAL FIBRILLATION,ATRIAL FIBRILLATION,,ATRIAL FIBRILLATION,,HLT_0365,,HLGT_0012,,CARDIAC DISORDERS,,CARDIAC DISORDERS,,MILD,N,,NONE,RECOVERED/RESOLVED,N,N,N,N,N,N,N,1/3/2014,11/8/2013,12/6/2013,27,55,Phase 1
CDISCPILOT01,AE,01-704-1266,1266,10/13/2013,12/6/2013,10/13/2013,12/6/2013,,1/3/2014,,,704,82,YEARS,M,WHITE,NOT HISPANIC OR LATINO,Xan_Hi,Xanomeline High Dose,Xan_Hi,Xanomeline High Dose,USA,10/5/2013,-8,3,E12,ATRIAL FLUTTER,ATRIAL FLUTTER,,ATRIAL FLUTTER,,HLT_0477,,HLGT_0627,,CARDIAC DISORDERS,,CARDIAC DISORDERS,,MILD,N,,NONE,NOT RECOVERED/NOT RESOLVED,N,N,N,N,N,N,N,10/27/2013,10/27/2013,11/8/2013,15,27,Phase 1
CDISCPILOT01,AE,01-704-1266,1266,10/13/2013,12/6/2013,10/13/2013,12/6/2013,,1/3/2014,,,704,82,YEARS,M,WHITE,NOT HISPANIC OR LATINO,Xan_Hi,Xanomeline High Dose,Xan_Hi,Xanomeline High Dose,USA,10/5/2013,-8,5,E12,ATRIAL FLUTTER,ATRIAL FLUTTER,,ATRIAL FLUTTER,,HLT_0477,,HLGT_0627,,CARDIAC DISORDERS,,CARDIAC DISORDERS,,MILD,N,,NONE,RECOVERED/RESOLVED,N,N,N,N,N,N,N,11/10/2013,10/27/2013,11/8/2013,15,27,Phase 1
CDISCPILOT01,AE,01-704-1266,1266,10/13/2013,12/6/2013,10/13/2013,12/6/2013,,1/3/2014,,,704,82,YEARS,M,WHITE,NOT HISPANIC OR LATINO,Xan_Hi,Xanomeline High Dose,Xan_Hi,Xanomeline High Dose,USA,10/5/2013,-8,7,E16,BLISTER,BLISTERING,,BLISTER,,HLT_0752,,HLGT_0267,,SKIN AND SUBCUTANEOUS TISSUE DISORDERS,,SKIN AND SUBCUTANEOUS TISSUE DISORDERS,,MILD,N,,PROBABLE,NOT RECOVERED/NOT RESOLVED,N,N,N,N,N,N,N,11/22/2013,11/15/2013,12/14/2013,34,63,Phase 1
CDISCPILOT01,AE,01-704-1266,1266,10/13/2013,12/6/2013,10/13/2013,12/6/2013,,1/3/2014,,,704,82,YEARS,M,WHITE,NOT HISPANIC OR LATINO,Xan_Hi,Xanomeline High Dose,Xan_Hi,Xanomeline High Dose,USA,10/5/2013,-8,14,E16,BLISTER,BLISTERING,,BLISTER,,HLT_0752,,HLGT_0267,,SKIN AND SUBCUTANEOUS TISSUE DISORDERS,,SKIN AND SUBCUTANEOUS TISSUE DISORDERS,,MILD,N,,PROBABLE,RECOVERED/RESOLVED,N,N,N,N,N,N,N,1/3/2014,11/15/2013,12/14/2013,34,63,Phase 1
CDISCPILOT01,AE,01-704-1266,1266,10/13/2013,12/6/2013,10/13/2013,12/6/2013,,1/3/2014,,,704,82,YEARS,M,WHITE,NOT HISPANIC OR LATINO,Xan_Hi,Xanomeline High Dose,Xan_Hi,Xanomeline High Dose,USA,10/5/2013,-8,2,E10,ERYTHEMA,ERYTHEMA,,ERYTHEMA,,HLT_0284,,HLGT_0192,,SKIN AND SUBCUTANEOUS TISSUE DISORDERS,,SKIN AND SUBCUTANEOUS TISSUE DISORDERS,,MILD,N,,PROBABLE,NOT RECOVERED/NOT RESOLVED,N,N,N,N,N,N,N,10/27/2013,10/17/2013,12/23/2013,5,72,Phase 1
CDISCPILOT01,AE,01-704-1266,1266,10/13/2013,12/6/2013,10/13/2013,12/6/2013,,1/3/2014,,,704,82,YEARS,M,WHITE,NOT HISPANIC OR LATINO,Xan_Hi,Xanomeline High Dose,Xan_Hi,Xanomeline High Dose,USA,10/5/2013,-8,9,E10,ERYTHEMA,ERYTHEMA,,ERYTHEMA,,HLT_0284,,HLGT_0192,,SKIN AND SUBCUTANEOUS TISSUE DISORDERS,,SKIN AND SUBCUTANEOUS TISSUE DISORDERS,,MODERATE,N,,PROBABLE,NOT RECOVERED/NOT RESOLVED,N,N,N,N,N,N,N,12/6/2013,10/17/2013,12/23/2013,5,72,Phase 1
CDISCPILOT01,AE,01-704-1266,1266,10/13/2013,12/6/2013,10/13/2013,12/6/2013,,1/3/2014,,,704,82,YEARS,M,WHITE,NOT HISPANIC OR LATINO,Xan_Hi,Xanomeline High Dose,Xan_Hi,Xanomeline High Dose,USA,10/5/2013,-8,12,E10,ERYTHEMA,ERYTHEMA,,ERYTHEMA,,HLT_0284,,HLGT_0192,,SKIN AND SUBCUTANEOUS TISSUE DISORDERS,,SKIN AND SUBCUTANEOUS TISSUE DISORDERS,,MODERATE,N,,PROBABLE,RECOVERED/RESOLVED,N,N,N,N,N,N,N,1/3/2014,10/17/2013,12/23/2013,5,72,Phase 1
CDISCPILOT01,AE,01-704-1266,1266,10/13/2013,12/6/2013,10/13/2013,12/6/2013,,1/3/2014,,,704,82,YEARS,M,WHITE,NOT HISPANIC OR LATINO,Xan_Hi,Xanomeline High Dose,Xan_Hi,Xanomeline High Dose,USA,10/5/2013,-8,11,E18,ERYTHEMA,REDNESS,,ERYTHEMA,,HLT_0284,,HLGT_0192,,SKIN AND SUBCUTANEOUS TISSUE DISORDERS,,SKIN AND SUBCUTANEOUS TISSUE DISORDERS,,MILD,N,,PROBABLE,NOT RECOVERED/NOT RESOLVED,N,N,N,N,N,N,N,12/6/2013,12/6/2013,12/23/2013,55,72,Phase 1
CDISCPILOT01,AE,01-704-1266,1266,10/13/2013,12/6/2013,10/13/2013,12/6/2013,,1/3/2014,,,704,82,YEARS,M,WHITE,NOT HISPANIC OR LATINO,Xan_Hi,Xanomeline High Dose,Xan_Hi,Xanomeline High Dose,USA,10/5/2013,-8,16,E18,ERYTHEMA,REDNESS,,ERYTHEMA,,HLT_0284,,HLGT_0192,,SKIN AND SUBCUTANEOUS TISSUE DISORDERS,,SKIN AND SUBCUTANEOUS TISSUE DISORDERS,,MILD,N,,PROBABLE,RECOVERED/RESOLVED,N,N,N,N,N,N,N,1/3/2014,12/6/2013,12/23/2013,55,72,Phase 1
CDISCPILOT01,AE,01-704-1266,1266,10/13/2013,12/6/2013,10/13/2013,12/6/2013,,1/3/2014,,,704,82,YEARS,M,WHITE,NOT HISPANIC OR LATINO,Xan_Hi,Xanomeline High Dose,Xan_Hi,Xanomeline High Dose,USA,10/5/2013,-8,6,E15,HYPERHIDROSIS,PERSPIRATION EXCESSIVE,,HYPERHIDROSIS,,HLT_0587,,HLGT_0005,,SKIN AND SUBCUTANEOUS TISSUE DISORDERS,,SKIN AND SUBCUTANEOUS TISSUE DISORDERS,,MILD,N,,POSSIBLE,NOT RECOVERED/NOT RESOLVED,N,N,N,N,N,N,N,11/10/2013,11/9/2013,12/4/2013,28,53,Phase 1
CDISCPILOT01,AE,01-704-1266,1266,10/13/2013,12/6/2013,10/13/2013,12/6/2013,,1/3/2014,,,704,82,YEARS,M,WHITE,NOT HISPANIC OR LATINO,Xan_Hi,Xanomeline High Dose,Xan_Hi,Xanomeline High Dose,USA,10/5/2013,-8,10,E15,HYPERHIDROSIS,PERSPIRATION EXCESSIVE,,HYPERHIDROSIS,,HLT_0587,,HLGT_0005,,SKIN AND SUBCUTANEOUS TISSUE DISORDERS,,SKIN AND SUBCUTANEOUS TISSUE DISORDERS,,MILD,N,,POSSIBLE,RECOVERED/RESOLVED,N,N,N,N,N,N,N,12/6/2013,11/9/2013,12/4/2013,28,53,Phase 1
CDISCPILOT01,AE,01-704-1266,1266,10/13/2013,12/6/2013,10/13/2013,12/6/2013,,1/3/2014,,,704,82,YEARS,M,WHITE,NOT HISPANIC OR LATINO,Xan_Hi,Xanomeline High Dose,Xan_Hi,Xanomeline High Dose,USA,10/5/2013,-8,8,E17,PRURITUS,ITCHING,,PRURITUS,,HLT_0778,,HLGT_0695,,SKIN AND SUBCUTANEOUS TISSUE DISORDERS,,SKIN AND SUBCUTANEOUS TISSUE DISORDERS,,MILD,N,,PROBABLE,NOT RECOVERED/NOT RESOLVED,N,N,N,N,N,N,N,11/22/2013,11/15/2013,12/23/2013,34,72,Phase 1
CDISCPILOT01,AE,01-704-1266,1266,10/13/2013,12/6/2013,10/13/2013,12/6/2013,,1/3/2014,,,704,82,YEARS,M,WHITE,NOT HISPANIC OR LATINO,Xan_Hi,Xanomeline High Dose,Xan_Hi,Xanomeline High Dose,USA,10/5/2013,-8,15,E17,PRURITUS,ITCHING,,PRURITUS,,HLT_0778,,HLGT_0695,,SKIN AND SUBCUTANEOUS TISSUE DISORDERS,,SKIN AND SUBCUTANEOUS TISSUE DISORDERS,,MILD,N,,PROBABLE,RECOVERED/RESOLVED,N,N,N,N,N,N,N,1/3/2014,11/15/2013,12/23/2013,34,72,Phase 1
CDISCPILOT01,AE,01-704-1266,1266,10/13/2013,12/6/2013,10/13/2013,12/6/2013,,1/3/2014,,,704,82,YEARS,M,WHITE,NOT HISPANIC OR LATINO,Xan_Hi,Xanomeline High Dose,Xan_Hi,Xanomeline High Dose,USA,10/5/2013,-8,1,E11,SEASONAL ALLERGY,HAY FEVER,,SEASONAL ALLERGY,,HLT_0714,,HLGT_0782,,IMMUNE SYSTEM DISORDERS,,IMMUNE SYSTEM DISORDERS,,MILD,N,,NONE,NOT RECOVERED/NOT RESOLVED,N,N,N,N,N,N,N,10/11/2013,10/6/2013,,-7,,Phase 1
CDISCPILOT01,AE,01-704-1323,1323,7/8/2013,8/8/2013,7/8/2013,8/5/2013,,10/1/2013,,,704,68,YEARS,F,WHITE,NOT HISPANIC OR LATINO,Xan_Lo,Xanomeline Low Dose,Xan_Lo,Xanomeline Low Dose,USA,6/13/2013,-25,4,E10,OEDEMA,EDEMA,,OEDEMA,,HLT_0656,,HLGT_0036,,GENERAL DISORDERS AND ADMINISTRATION SITE CONDITIONS,,GENERAL DISORDERS AND ADMINISTRATION SITE CONDITIONS,,MILD,N,,PROBABLE,NOT RECOVERED/NOT RESOLVED,N,N,N,N,N,N,N,8/4/2013,8/4/2013,,28,,Phase 1
CDISCPILOT01,AE,01-704-1323,1323,7/8/2013,8/8/2013,7/8/2013,8/5/2013,,10/1/2013,,,704,68,YEARS,F,WHITE,NOT HISPANIC OR LATINO,Xan_Lo,Xanomeline Low Dose,Xan_Lo,Xanomeline Low Dose,USA,6/13/2013,-25,3,E09,PRURITUS,ITCHING,,PRURITUS,,HLT_0778,,HLGT_0695,,SKIN AND SUBCUTANEOUS TISSUE DISORDERS,,SKIN AND SUBCUTANEOUS TISSUE DISORDERS,,MILD,N,,PROBABLE,NOT RECOVERED/NOT RESOLVED,N,N,N,N,N,N,N,8/4/2013,8/4/2013,,28,,Phase 1
CDISCPILOT01,AE,01-704-1323,1323,7/8/2013,8/8/2013,7/8/2013,8/5/2013,,10/1/2013,,,704,68,YEARS,F,WHITE,NOT HISPANIC OR LATINO,Xan_Lo,Xanomeline Low Dose,Xan_Lo,Xanomeline Low Dose,USA,6/13/2013,-25,2,E08,RASH,RASH,,RASH,,HLT_0762,,HLGT_0198,,SKIN AND SUBCUTANEOUS TISSUE DISORDERS,,SKIN AND SUBCUTANEOUS TISSUE DISORDERS,,MILD,N,,PROBABLE,NOT RECOVERED/NOT RESOLVED,N,N,N,N,N,N,N,8/4/2013,8/4/2013,,28,,Phase 1
CDISCPILOT01,AE,01-704-1323,1323,7/8/2013,8/8/2013,7/8/2013,8/5/2013,,10/1/2013,,,704,68,YEARS,F,WHITE,NOT HISPANIC OR LATINO,Xan_Lo,Xanomeline Low Dose,Xan_Lo,Xanomeline Low Dose,USA,6/13/2013,-25,1,E07,VIRAL INFECTION,VIRAL INFECTION,,VIRAL INFECTION,,HLT_0733,,HLGT_0408,,INFECTIONS AND INFESTATIONS,,INFECTIONS AND INFESTATIONS,,MILD,N,,NONE,RECOVERED/RESOLVED,N,N,N,N,N,N,N,8/4/2013,7/30/2013,8/3/2013,23,27,Phase 1
CDISCPILOT01,AE,01-704-1325,1325,4/23/2014,8/6/2014,4/23/2014,7/4/2014,,2014-08-06T13:30,,,704,81,YEARS,M,WHITE,NOT HISPANIC OR LATINO,Xan_Lo,Xanomeline Low Dose,Xan_Lo,Xanomeline Low Dose,USA,4/16/2014,-7,2,E05,PRURITUS,ITCHING,,PRURITUS,,HLT_0778,,HLGT_0695,,SKIN AND SUBCUTANEOUS TISSUE DISORDERS,,SKIN AND SUBCUTANEOUS TISSUE DISORDERS,,MILD,N,,PROBABLE,NOT RECOVERED/NOT RESOLVED,N,N,N,N,N,N,N,7/16/2014,7/4/2014,,73,,Phase 1
CDISCPILOT01,AE,01-704-1325,1325,4/23/2014,8/6/2014,4/23/2014,7/4/2014,,2014-08-06T13:30,,,704,81,YEARS,M,WHITE,NOT HISPANIC OR LATINO,Xan_Lo,Xanomeline Low Dose,Xan_Lo,Xanomeline Low Dose,USA,4/16/2014,-7,1,E04,RASH,RASH,,RASH,,HLT_0762,,HLGT_0198,,SKIN AND SUBCUTANEOUS TISSUE DISORDERS,,SKIN AND SUBCUTANEOUS TISSUE DISORDERS,,MILD,N,,PROBABLE,NOT RECOVERED/NOT RESOLVED,N,N,N,N,N,N,N,6/4/2014,5/23/2014,,31,,Phase 1
CDISCPILOT01,AE,01-704-1332,1332,12/9/2013,2/16/2014,12/9/2013,2/14/2014,,2/24/2014,,,704,80,YEARS,M,WHITE,NOT HISPANIC OR LATINO,Xan_Hi,Xanomeline High Dose,Xan_Hi,Xanomeline High Dose,USA,11/24/2013,-15,4,E05,BURNING SENSATION,BURNING SENSATION,,BURNING SENSATION,,HLT_0775,,HLGT_0456,,NERVOUS SYSTEM DISORDERS,,NERVOUS SYSTEM DISORDERS,,MILD,N,,PROBABLE,NOT RECOVERED/NOT RESOLVED,N,N,N,N,N,N,N,2/3/2014,2/3/2014,,57,,Phase 1
CDISCPILOT01,AE,01-704-1332,1332,12/9/2013,2/16/2014,12/9/2013,2/14/2014,,2/24/2014,,,704,80,YEARS,M,WHITE,NOT HISPANIC OR LATINO,Xan_Hi,Xanomeline High Dose,Xan_Hi,Xanomeline High Dose,USA,11/24/2013,-15,2,E02,PRURITUS,ITCHING,,PRURITUS,,HLT_0778,,HLGT_0695,,SKIN AND SUBCUTANEOUS TISSUE DISORDERS,,SKIN AND SUBCUTANEOUS TISSUE DISORDERS,,MILD,N,,PROBABLE,NOT RECOVERED/NOT RESOLVED,N,N,N,N,N,N,N,1/20/2014,1/18/2014,2/24/2014,41,78,Phase 1
CDISCPILOT01,AE,01-704-1332,1332,12/9/2013,2/16/2014,12/9/2013,2/14/2014,,2/24/2014,,,704,80,YEARS,M,WHITE,NOT HISPANIC OR LATINO,Xan_Hi,Xanomeline High Dose,Xan_Hi,Xanomeline High Dose,USA,11/24/2013,-15,6,E02,PRURITUS,ITCHING,,PRURITUS,,HLT_0778,,HLGT_0695,,SKIN AND SUBCUTANEOUS TISSUE DISORDERS,,SKIN AND SUBCUTANEOUS TISSUE DISORDERS,,MILD,N,,PROBABLE,RECOVERED/RESOLVED,N,N,N,N,N,N,N,2/24/2014,1/18/2014,2/24/2014,41,78,Phase 1
CDISCPILOT01,AE,01-704-1332,1332,12/9/2013,2/16/2014,12/9/2013,2/14/2014,,2/24/2014,,,704,80,YEARS,M,WHITE,NOT HISPANIC OR LATINO,Xan_Hi,Xanomeline High Dose,Xan_Hi,Xanomeline High Dose,USA,11/24/2013,-15,1,E01,RASH,RASH,,RASH,,HLT_0762,,HLGT_0198,,SKIN AND SUBCUTANEOUS TISSUE DISORDERS,,SKIN AND SUBCUTANEOUS TISSUE DISORDERS,,MILD,N,,NONE,NOT RECOVERED/NOT RESOLVED,N,N,N,N,N,N,N,12/23/2013,12/10/2013,2/24/2014,2,78,Phase 1
CDISCPILOT01,AE,01-704-1332,1332,12/9/2013,2/16/2014,12/9/2013,2/14/2014,,2/24/2014,,,704,80,YEARS,M,WHITE,NOT HISPANIC OR LATINO,Xan_Hi,Xanomeline High Dose,Xan_Hi,Xanomeline High Dose,USA,11/24/2013,-15,3,E01,RASH,RASH,,RASH,,HLT_0762,,HLGT_0198,,SKIN AND SUBCUTANEOUS TISSUE DISORDERS,,SKIN AND SUBCUTANEOUS TISSUE DISORDERS,,MODERATE,N,,NONE,NOT RECOVERED/NOT RESOLVED,N,N,N,N,N,N,N,2/3/2014,12/10/2013,2/24/2014,2,78,Phase 1
CDISCPILOT01,AE,01-704-1332,1332,12/9/2013,2/16/2014,12/9/2013,2/14/2014,,2/24/2014,,,704,80,YEARS,M,WHITE,NOT HISPANIC OR LATINO,Xan_Hi,Xanomeline High Dose,Xan_Hi,Xanomeline High Dose,USA,11/24/2013,-15,5,E01,RASH,RASH,,RASH,,HLT_0762,,HLGT_0198,,SKIN AND SUBCUTANEOUS TISSUE DISORDERS,,SKIN AND SUBCUTANEOUS TISSUE DISORDERS,,MODERATE,N,,NONE,RECOVERED/RESOLVED,N,N,N,N,N,N,N,2/24/2014,12/10/2013,2/24/2014,2,78,Phase 1
CDISCPILOT01,AE,01-704-1351,1351,10/12/2013,4/18/2014,10/12/2013,4/18/2014,,2014-04-18T10:30,,,704,70,YEARS,M,WHITE,NOT HISPANIC OR LATINO,Pbo,Placebo,Pbo,Placebo,USA,9/26/2013,-16,2,E03,FLATULENCE,GAS,,FLATULENCE,,HLT_0356,,HLGT_0504,,GASTROINTESTINAL DISORDERS,,GASTROINTESTINAL DISORDERS,,MILD,N,,NONE,NOT RECOVERED/NOT RESOLVED,N,N,N,N,N,N,N,11/7/2013,10/27/2013,4/4/2014,16,175,Phase 1
CDISCPILOT01,AE,01-704-1351,1351,10/12/2013,4/18/2014,10/12/2013,4/18/2014,,2014-04-18T10:30,,,704,70,YEARS,M,WHITE,NOT HISPANIC OR LATINO,Pbo,Placebo,Pbo,Placebo,USA,9/26/2013,-16,4,E03,FLATULENCE,GAS,,FLATULENCE,,HLT_0356,,HLGT_0504,,GASTROINTESTINAL DISORDERS,,GASTROINTESTINAL DISORDERS,,MILD,N,,NONE,RECOVERED/RESOLVED,N,N,N,N,N,N,N,4/18/2014,10/27/2013,4/4/2014,16,175,Phase 1
CDISCPILOT01,AE,01-704-1351,1351,10/12/2013,4/18/2014,10/12/2013,4/18/2014,,2014-04-18T10:30,,,704,70,YEARS,M,WHITE,NOT HISPANIC OR LATINO,Pbo,Placebo,Pbo,Placebo,USA,9/26/2013,-16,1,E02,POLLAKIURIA,URINARY FREQUENCY,,POLLAKIURIA,,HLT_0393,,HLGT_0560,,RENAL AND URINARY DISORDERS,,RENAL AND URINARY DISORDERS,,MILD,N,,NONE,NOT RECOVERED/NOT RESOLVED,N,N,N,N,N,N,N,11/7/2013,10/27/2013,4/4/2014,16,175,Phase 1
CDISCPILOT01,AE,01-704-1351,1351,10/12/2013,4/18/2014,10/12/2013,4/18/2014,,2014-04-18T10:30,,,704,70,YEARS,M,WHITE,NOT HISPANIC OR LATINO,Pbo,Placebo,Pbo,Placebo,USA,9/26/2013,-16,3,E02,POLLAKIURIA,URINARY FREQUENCY,,POLLAKIURIA,,HLT_0393,,HLGT_0560,,RENAL AND URINARY DISORDERS,,RENAL AND URINARY DISORDERS,,MILD,N,,NONE,RECOVERED/RESOLVED,N,N,N,N,N,N,N,4/18/2014,10/27/2013,4/4/2014,16,175,Phase 1
CDISCPILOT01,AE,01-704-1388,1388,12/7/2012,6/19/2013,12/7/2012,6/11/2013,,2013-06-19T12:30,,,704,81,YEARS,M,WHITE,NOT HISPANIC OR LATINO,Pbo,Placebo,Pbo,Placebo,USA,11/28/2012,-9,1,E01,HEADACHE,HEADACHE,,HEADACHE,,HLT_0064,,HLGT_0344,,NERVOUS SYSTEM DISORDERS,,NERVOUS SYSTEM DISORDERS,,MODERATE,N,,NONE,NOT RECOVERED/NOT RESOLVED,N,N,N,N,N,N,N,3/27/2013,8/23/2012,,-10,,Phase 1
CDISCPILOT01,AE,01-704-1435,1435,11/17/2012,1/12/2013,11/17/2012,1/9/2013,,2013-01-12T12:00,,,704,74,YEARS,M,WHITE,NOT HISPANIC OR LATINO,Pbo,Placebo,Pbo,Placebo,USA,11/1/2012,-16,1,E08,PARKINSON'S DISEASE,DISEASE PARKINSON'S,,PARKINSON'S DISEASE,,HLT_0279,,HLGT_0313,,NERVOUS SYSTEM DISORDERS,,NERVOUS SYSTEM DISORDERS,,MILD,N,,NONE,NOT RECOVERED/NOT RESOLVED,N,N,N,N,N,N,N,1/12/2013,1/6/2013,,51,,Phase 1
CDISCPILOT01,AE,01-704-1445,1445,5/11/2014,11/1/2014,5/11/2014,11/1/2014,,11/1/2014,20,Y,704,75,YEARS,M,WHITE,NOT HISPANIC OR LATINO,Pbo,Placebo,Pbo,Placebo,USA,5/1/2014,-10,1,E06,COMPLETED SUICIDE,SUICIDE,,COMPLETED SUICIDE,,HLT_0625,,HLGT_0013,,PSYCHIATRIC DISORDERS,,PSYCHIATRIC DISORDERS,,SEVERE,N,,NONE,FATAL,N,N,N,Y,N,N,N,11/1/2014,10/31/2014,10/31/2014,174,174,Phase 2
CDISCPILOT01,DM,01-705-1018,1018,7/5/2013,7/12/2013,7/5/2013,,,7/12/2013,,,705,69,YEARS,F,WHITE,NOT HISPANIC OR LATINO,Pbo,Placebo,Pbo,Placebo,USA,6/30/2013,-5,,,,,,,,,,,,,,,,,,,,,,,,,,,,,,,,,Phase 1
CDISCPILOT01,AE,01-705-1031,1031,11/27/2013,5/11/2014,11/27/2013,12/18/2013,,2014-05-11T09:55,,,705,56,YEARS,F,WHITE,HISPANIC OR LATINO,Xan_Lo,Xanomeline Low Dose,Xan_Lo,Xanomeline Low Dose,USA,11/17/2013,-10,1,E02,RASH,RASH,,RASH,,HLT_0762,,HLGT_0198,,SKIN AND SUBCUTANEOUS TISSUE DISORDERS,,SKIN AND SUBCUTANEOUS TISSUE DISORDERS,,MILD,N,,POSSIBLE,NOT RECOVERED/NOT RESOLVED,N,N,N,N,N,N,N,12/25/2013,12/25/2013,,29,,Phase 1
CDISCPILOT01,AE,01-705-1059,1059,8/5/2013,12/5/2013,8/5/2013,12/5/2013,,2/6/2014,,,705,66,YEARS,F,WHITE,NOT HISPANIC OR LATINO,Pbo,Placebo,Pbo,Placebo,USA,8/2/2013,-3,1,E02,ERYTHEMA,ERYTHEMA,,ERYTHEMA,,HLT_0284,,HLGT_0192,,SKIN AND SUBCUTANEOUS TISSUE DISORDERS,,SKIN AND SUBCUTANEOUS TISSUE DISORDERS,,MODERATE,N,,PROBABLE,NOT RECOVERED/NOT RESOLVED,N,N,N,N,N,N,N,11/7/2013,11/2/2013,,90,,Phase 1
CDISCPILOT01,AE,01-705-1186,1186,1/8/2014,2/7/2014,1/8/2014,1/26/2014,,2014-02-07T15:20,,,705,84,YEARS,F,WHITE,NOT HISPANIC OR LATINO,Pbo,Placebo,Pbo,Placebo,USA,1/3/2014,-5,1,E02,HYPERBILIRUBINAEMIA,HYPERBILIRUBINEMIA,,HYPERBILIRUBINAEMIA,,HLT_0478,,HLGT_0087,,HEPATOBILIARY DISORDERS,,HEPATOBILIARY DISORDERS,,MODERATE,N,,REMOTE,NOT RECOVERED/NOT RESOLVED,N,N,N,N,N,N,N,2/7/2014,1/26/2014,,19,,Phase 1
CDISCPILOT01,AE,01-705-1199,1199,9/16/2013,9/29/2013,9/16/2013,9/28/2013,,2013-09-29T10:30,,,705,87,YEARS,M,WHITE,NOT HISPANIC OR LATINO,Xan_Lo,Xanomeline Low Dose,Xan_Lo,Xanomeline Low Dose,USA,9/11/2013,-5,1,E06,DYSPEPSIA,PYROSIS,,DYSPEPSIA,,HLT_0244,,HLGT_0716,,GASTROINTESTINAL DISORDERS,,GASTROINTESTINAL DISORDERS,,MODERATE,N,,POSSIBLE,NOT RECOVERED/NOT RESOLVED,N,N,N,N,N,N,N,9/29/2013,9/17/2013,9/29/2013,2,14,Phase 1
CDISCPILOT01,AE,01-705-1199,1199,9/16/2013,9/29/2013,9/16/2013,9/28/2013,,2013-09-29T10:30,,,705,87,YEARS,M,WHITE,NOT HISPANIC OR LATINO,Xan_Lo,Xanomeline Low Dose,Xan_Lo,Xanomeline Low Dose,USA,9/11/2013,-5,2,E06,DYSPEPSIA,PYROSIS,,DYSPEPSIA,,HLT_0244,,HLGT_0716,,GASTROINTESTINAL DISORDERS,,GASTROINTESTINAL DISORDERS,,MODERATE,N,,POSSIBLE,RECOVERED/RESOLVED,N,N,N,N,N,N,N,9/29/2013,9/17/2013,9/29/2013,2,14,Phase 1
CDISCPILOT01,AE,01-705-1280,1280,1/17/2014,7/25/2014,1/17/2014,7/25/2014,,7/25/2014,,,705,56,YEARS,F,WHITE,NOT HISPANIC OR LATINO,Xan_Hi,Xanomeline High Dose,Xan_Hi,Xanomeline High Dose,USA,1/11/2014,-6,1,E01,PRURITUS,PRURITUS,,PRURITUS,,HLT_0778,,HLGT_0695,,SKIN AND SUBCUTANEOUS TISSUE DISORDERS,,SKIN AND SUBCUTANEOUS TISSUE DISORDERS,,MILD,N,,POSSIBLE,NOT RECOVERED/NOT RESOLVED,N,N,N,N,N,N,N,5/16/2014,4/20/2014,,94,,Phase 1
CDISCPILOT01,AE,01-705-1281,1281,11/28/2013,3/17/2014,11/28/2013,2/27/2014,,4/20/2014,,,705,73,YEARS,F,BLACK OR AFRICAN AMERICAN,NOT HISPANIC OR LATINO,Xan_Hi,Xanomeline High Dose,Xan_Hi,Xanomeline High Dose,USA,11/26/2013,-2,2,E05,EXCORIATION,ABRASIONS,,EXCORIATION,,HLT_0738,,HLGT_0511,,"INJURY, POISONING AND PROCEDURAL COMPLICATIONS",,"INJURY, POISONING AND PROCEDURAL COMPLICATIONS",,MODERATE,N,,PROBABLE,NOT RECOVERED/NOT RESOLVED,N,N,N,N,N,N,N,2/18/2014,1/30/2014,,64,,Phase 1
CDISCPILOT01,AE,01-705-1281,1281,11/28/2013,3/17/2014,11/28/2013,2/27/2014,,4/20/2014,,,705,73,YEARS,F,BLACK OR AFRICAN AMERICAN,NOT HISPANIC OR LATINO,Xan_Hi,Xanomeline High Dose,Xan_Hi,Xanomeline High Dose,USA,11/26/2013,-2,1,E04,PRURITUS,PRURITUS,,PRURITUS,,HLT_0778,,HLGT_0695,,SKIN AND SUBCUTANEOUS TISSUE DISORDERS,,SKIN AND SUBCUTANEOUS TISSUE DISORDERS,,MILD,N,,POSSIBLE,NOT RECOVERED/NOT RESOLVED,N,N,N,N,N,N,N,2/18/2014,1/30/2014,,64,,Phase 1
CDISCPILOT01,AE,01-705-1281,1281,11/28/2013,3/17/2014,11/28/2013,2/27/2014,,4/20/2014,,,705,73,YEARS,F,BLACK OR AFRICAN AMERICAN,NOT HISPANIC OR LATINO,Xan_Hi,Xanomeline High Dose,Xan_Hi,Xanomeline High Dose,USA,11/26/2013,-2,3,E04,PRURITUS,PRURITUS,,PRURITUS,,HLT_0778,,HLGT_0695,,SKIN AND SUBCUTANEOUS TISSUE DISORDERS,,SKIN AND SUBCUTANEOUS TISSUE DISORDERS,,MODERATE,N,,POSSIBLE,NOT RECOVERED/NOT RESOLVED,N,N,N,N,N,N,N,3/17/2014,1/30/2014,,64,,Phase 1
CDISCPILOT01,DM,01-705-1282,1282,12/26/2012,6/24/2013,12/26/2012,6/24/2013,,2013-06-24T15:25,,,705,70,YEARS,F,BLACK OR AFRICAN AMERICAN,NOT HISPANIC OR LATINO,Pbo,Placebo,Pbo,Placebo,USA,12/23/2012,-3,,,,,,,,,,,,,,,,,,,,,,,,,,,,,,,,,Phase 1
CDISCPILOT01,AE,01-705-1292,1292,10/14/2013,5/14/2014,10/14/2013,5/13/2014,,2014-05-14T13:33,,,705,60,YEARS,F,BLACK OR AFRICAN AMERICAN,NOT HISPANIC OR LATINO,Xan_Lo,Xanomeline Low Dose,Xan_Lo,Xanomeline Low Dose,USA,10/11/2013,-3,2,E02,ERYTHEMA,ERYTHEMA,,ERYTHEMA,,HLT_0284,,HLGT_0192,,SKIN AND SUBCUTANEOUS TISSUE DISORDERS,,SKIN AND SUBCUTANEOUS TISSUE DISORDERS,,MODERATE,N,,PROBABLE,NOT RECOVERED/NOT RESOLVED,N,N,N,N,N,N,N,3/3/2014,2/13/2014,,123,,Phase 2
CDISCPILOT01,AE,01-705-1292,1292,10/14/2013,5/14/2014,10/14/2013,5/13/2014,,2014-05-14T13:33,,,705,60,YEARS,F,BLACK OR AFRICAN AMERICAN,NOT HISPANIC OR LATINO,Xan_Lo,Xanomeline Low Dose,Xan_Lo,Xanomeline Low Dose,USA,10/11/2013,-3,1,E01,PRURITUS,ITCHY,,PRURITUS,,HLT_0778,,HLGT_0695,,SKIN AND SUBCUTANEOUS TISSUE DISORDERS,,SKIN AND SUBCUTANEOUS TISSUE DISORDERS,,MILD,N,,PROBABLE,NOT RECOVERED/NOT RESOLVED,N,N,N,N,N,N,N,10/29/2013,10/28/2013,,15,,Phase 1
CDISCPILOT01,AE,01-705-1303,1303,12/16/2013,6/2/2014,12/16/2013,12/30/2013,,6/2/2014,,,705,72,YEARS,M,WHITE,NOT HISPANIC OR LATINO,Xan_Hi,Xanomeline High Dose,Xan_Hi,Xanomeline High Dose,USA,12/10/2013,-6,1,E02,PRURITUS,PRURITUS,,PRURITUS,,HLT_0778,,HLGT_0695,,SKIN AND SUBCUTANEOUS TISSUE DISORDERS,,SKIN AND SUBCUTANEOUS TISSUE DISORDERS,,MILD,N,,POSSIBLE,NOT RECOVERED/NOT RESOLVED,N,N,N,N,N,N,N,2/10/2014,2/5/2014,3/3/2014,52,78,Phase 1
CDISCPILOT01,AE,01-705-1303,1303,12/16/2013,6/2/2014,12/16/2013,12/30/2013,,6/2/2014,,,705,72,YEARS,M,WHITE,NOT HISPANIC OR LATINO,Xan_Hi,Xanomeline High Dose,Xan_Hi,Xanomeline High Dose,USA,12/10/2013,-6,3,E02,PRURITUS,PRURITUS,,PRURITUS,,HLT_0778,,HLGT_0695,,SKIN AND SUBCUTANEOUS TISSUE DISORDERS,,SKIN AND SUBCUTANEOUS TISSUE DISORDERS,,MILD,N,,POSSIBLE,RECOVERED/RESOLVED,N,N,N,N,N,N,N,4/7/2014,2/5/2014,3/3/2014,52,78,Phase 1
CDISCPILOT01,AE,01-705-1303,1303,12/16/2013,6/2/2014,12/16/2013,12/30/2013,,6/2/2014,,,705,72,YEARS,M,WHITE,NOT HISPANIC OR LATINO,Xan_Hi,Xanomeline High Dose,Xan_Hi,Xanomeline High Dose,USA,12/10/2013,-6,2,E03,RASH,RASH,,RASH,,HLT_0762,,HLGT_0198,,SKIN AND SUBCUTANEOUS TISSUE DISORDERS,,SKIN AND SUBCUTANEOUS TISSUE DISORDERS,,MILD,N,,POSSIBLE,NOT RECOVERED/NOT RESOLVED,N,N,N,N,N,N,N,2/10/2014,2/5/2014,3/3/2014,52,78,Phase 1
CDISCPILOT01,AE,01-705-1303,1303,12/16/2013,6/2/2014,12/16/2013,12/30/2013,,6/2/2014,,,705,72,YEARS,M,WHITE,NOT HISPANIC OR LATINO,Xan_Hi,Xanomeline High Dose,Xan_Hi,Xanomeline High Dose,USA,12/10/2013,-6,4,E03,RASH,RASH,,RASH,,HLT_0762,,HLGT_0198,,SKIN AND SUBCUTANEOUS TISSUE DISORDERS,,SKIN AND SUBCUTANEOUS TISSUE DISORDERS,,MODERATE,N,,POSSIBLE,RECOVERED/RESOLVED,N,N,N,N,N,N,N,4/7/2014,2/5/2014,3/3/2014,52,78,Phase 1
CDISCPILOT01,AE,01-705-1310,1310,11/2/2013,1/23/2014,11/2/2013,1/23/2014,,2/24/2014,,,705,74,YEARS,F,WHITE,NOT HISPANIC OR LATINO,Xan_Hi,Xanomeline High Dose,Xan_Hi,Xanomeline High Dose,USA,10/26/2013,-7,1,E02,RASH PRURITIC,PRURITIC RASH,,RASH PRURITIC,,HLT_0127,,HLGT_0753,,SKIN AND SUBCUTANEOUS TISSUE DISORDERS,,SKIN AND SUBCUTANEOUS TISSUE DISORDERS,,MODERATE,N,,POSSIBLE,NOT RECOVERED/NOT RESOLVED,N,N,N,N,N,N,N,11/22/2013,11/14/2013,,13,,Phase 1
CDISCPILOT01,AE,01-705-1310,1310,11/2/2013,1/23/2014,11/2/2013,1/23/2014,,2/24/2014,,,705,74,YEARS,F,WHITE,NOT HISPANIC OR LATINO,Xan_Hi,Xanomeline High Dose,Xan_Hi,Xanomeline High Dose,USA,10/26/2013,-7,2,E03,WOUND HAEMORRHAGE,WOUND BLEEDING,,WOUND HAEMORRHAGE,,HLT_0154,,HLGT_0162,,VASCULAR DISORDERS,,VASCULAR DISORDERS,,MODERATE,N,,POSSIBLE,NOT RECOVERED/NOT RESOLVED,N,N,N,N,N,N,N,1/23/2014,1/9/2014,,69,,Phase 1
CDISCPILOT01,AE,01-705-1349,1349,3/10/2013,9/8/2013,3/10/2013,9/8/2013,,2013-09-08T10:10,,,705,86,YEARS,F,WHITE,HISPANIC OR LATINO,Pbo,Placebo,Pbo,Placebo,USA,2/24/2013,-14,4,E06,ELECTROCARDIOGRAM ST SEGMENT DEPRESSIO,ST SEGMENT DEPRESSED,,ELECTROCARDIOGRAM ST SEGMENT DEPRESSIO,,HLT_0610,,HLGT_0220,,INVESTIGATIONS,,INVESTIGATIONS,,MILD,N,,REMOTE,NOT RECOVERED/NOT RESOLVED,N,N,N,N,N,N,N,8/25/2013,8/25/2013,,169,,Phase 2
CDISCPILOT01,AE,01-705-1349,1349,3/10/2013,9/8/2013,3/10/2013,9/8/2013,,2013-09-08T10:10,,,705,86,YEARS,F,WHITE,HISPANIC OR LATINO,Pbo,Placebo,Pbo,Placebo,USA,2/24/2013,-14,1,E03,NAUSEA,NAUSEA,,NAUSEA,,HLT_0742,,HLGT_0326,,GASTROINTESTINAL DISORDERS,,GASTROINTESTINAL DISORDERS,,MILD,N,,REMOTE,RECOVERED/RESOLVED,N,N,N,N,N,N,N,4/17/2013,4/8/2013,4/8/2013,30,30,Phase 1
CDISCPILOT01,AE,01-705-1349,1349,3/10/2013,9/8/2013,3/10/2013,9/8/2013,,2013-09-08T10:10,,,705,86,YEARS,F,WHITE,HISPANIC OR LATINO,Pbo,Placebo,Pbo,Placebo,USA,2/24/2013,-14,3,E05,VENTRICULAR HYPERTROPHY,LEFT VENTRICULAR HYPERTROPHY,,VENTRICULAR HYPERTROPHY,,HLT_0104,,HLGT_0259,,CARDIAC DISORDERS,,CARDIAC DISORDERS,,MILD,N,,REMOTE,NOT RECOVERED/NOT RESOLVED,N,N,N,N,N,N,N,8/25/2013,8/25/2013,,169,,Phase 2
CDISCPILOT01,AE,01-705-1349,1349,3/10/2013,9/8/2013,3/10/2013,9/8/2013,,2013-09-08T10:10,,,705,86,YEARS,F,WHITE,HISPANIC OR LATINO,Pbo,Placebo,Pbo,Placebo,USA,2/24/2013,-14,2,E04,VOMITING,VOMITING,,VOMITING,,HLT_0016,,HLGT_0350,,GASTROINTESTINAL DISORDERS,,GASTROINTESTINAL DISORDERS,,MILD,N,,REMOTE,RECOVERED/RESOLVED,N,N,N,N,N,N,N,4/17/2013,4/11/2013,4/11/2013,33,33,Phase 1
CDISCPILOT01,DM,01-705-1377,1377,1/4/2014,3/7/2014,1/4/2014,1/25/2014,,3/7/2014,,,705,63,YEARS,F,BLACK OR AFRICAN AMERICAN,NOT HISPANIC OR LATINO,Xan_Hi,Xanomeline High Dose,Xan_Hi,Xanomeline High Dose,USA,12/29/2013,-6,,,,,,,,,,,,,,,,,,,,,,,,,,,,,,,,,Phase 1
CDISCPILOT01,DM,01-705-1382,1382,5/13/2013,5/13/2013,5/13/2013,,,5/13/2013,,,705,82,YEARS,M,WHITE,NOT HISPANIC OR LATINO,Xan_Hi,Xanomeline High Dose,Xan_Lo,Xanomeline Low Dose,USA,5/9/2013,-4,,,,,,,,,,,,,,,,,,,,,,,,,,,,,,,,,Phase 1
CDISCPILOT01,AE,01-705-1393,1393,9/7/2012,2/20/2013,9/7/2012,2/1/2013,,4/25/2013,,,705,84,YEARS,F,WHITE,NOT HISPANIC OR LATINO,Xan_Lo,Xanomeline Low Dose,Xan_Lo,Xanomeline Low Dose,USA,9/2/2012,-5,1,E01,ABDOMINAL PAIN,ABDOMINAL CRAMPS,,ABDOMINAL PAIN,,HLT_0217,,HLGT_0419,,GASTROINTESTINAL DISORDERS,,GASTROINTESTINAL DISORDERS,,MILD,N,,REMOTE,RECOVERED/RESOLVED,N,N,N,N,N,N,N,9/27/2012,9/19/2012,9/24/2012,13,18,Phase 1
