visit,STUDYID,DOMAIN,USUBJID,SUBJID,RFSTDTC,RFENDTC,RFXSTDTC,RFXENDTC,RFICDTC,RFPENDTC,DTHDTC,DTHFL,SITEID,AGE,AGEU,SEX,RACE,ETHNIC,ARMCD,ARM,ACTARMCD,ACTARM,COUNTRY,DMDTC,DMDY,LBSEQ,LBTESTCD,LBTEST,LBCAT,LBORRES,LBORRESU,LBORNRLO,LBORNRHI,LBSTRESC,LBSTRESN,LBSTRESU,LBSTNRLO,LBSTNRHI,LBNRIND,LBBLFL,VISITNUM,VISITDY,LBDTC,LBDY,VSSEQ,VSTESTCD,VSTEST,VSPOS,VSORRES,VSORRESU,VSSTRESC,VSSTRESN,VSSTRESU,VSSTAT,VSLOC,VSBLFL,VSDTC,VSDY,VSTPT,VSTPTNUM,VSELTM,VSTPTREF,type,test,stresn,stresu
SCREENING 1,CDISCPILOT01,LB,01-701-1015,1015,1/2/14,7/2/14,1/2/14,7/2/14,NA,2014-07-02T11:45,NA,NA,701,63,YEARS,F,WHITE,HISPANIC OR LATINO,Pbo,Placebo,Pbo,Placebo,USA,12/26/13,-7,3,ALT,Alanine Aminotransfera,CHEMISTRY,27,U/L,6,34,27,27,U/L,6,34,NORMAL,Y,1,-7,2013-12-26T14:45,-7,,,,,,,,,,,,,,,,,,,lb,Alanine Aminotransfera,27,U/L
WEEK 2,CDISCPILOT01,LB,01-701-1015,1015,1/2/14,7/2/14,1/2/14,7/2/14,NA,2014-07-02T11:45,NA,NA,701,63,YEARS,F,WHITE,HISPANIC OR LATINO,Pbo,Placebo,Pbo,Placebo,USA,12/26/13,-7,41,ALT,Alanine Aminotransfera,CHEMISTRY,41,U/L,6,34,41,41,U/L,6,34,HIGH,NA,4,14,2014-01-16T13:17,15,,,,,,,,,,,,,,,,,,,lb,Alanine Aminotransfera,41,U/L
WEEK 4,CDISCPILOT01,LB,01-701-1015,1015,1/2/14,7/2/14,1/2/14,7/2/14,NA,2014-07-02T11:45,NA,NA,701,63,YEARS,F,WHITE,HISPANIC OR LATINO,Pbo,Placebo,Pbo,Placebo,USA,12/26/13,-7,76,ALT,Alanine Aminotransfera,CHEMISTRY,18,U/L,6,34,18,18,U/L,6,34,NORMAL,NA,5,28,2014-01-30T08:50,29,,,,,,,,,,,,,,,,,,,lb,Alanine Aminotransfera,18,U/L
WEEK 6,CDISCPILOT01,LB,01-701-1015,1015,1/2/14,7/2/14,1/2/14,7/2/14,NA,2014-07-02T11:45,NA,NA,701,63,YEARS,F,WHITE,HISPANIC OR LATINO,Pbo,Placebo,Pbo,Placebo,USA,12/26/13,-7,106,ALT,Alanine Aminotransfera,CHEMISTRY,26,U/L,6,34,26,26,U/L,6,34,NORMAL,NA,7,42,2014-02-12T12:56,42,,,,,,,,,,,,,,,,,,,lb,Alanine Aminotransfera,26,U/L
WEEK 8,CDISCPILOT01,LB,01-701-1015,1015,1/2/14,7/2/14,1/2/14,7/2/14,NA,2014-07-02T11:45,NA,NA,701,63,YEARS,F,WHITE,HISPANIC OR LATINO,Pbo,Placebo,Pbo,Placebo,USA,12/26/13,-7,136,ALT,Alanine Aminotransfera,CHEMISTRY,22,U/L,6,34,22,22,U/L,6,34,NORMAL,NA,8,56,2014-03-05T12:25,63,,,,,,,,,,,,,,,,,,,lb,Alanine Aminotransfera,22,U/L
WEEK 12,CDISCPILOT01,LB,01-701-1015,1015,1/2/14,7/2/14,1/2/14,7/2/14,NA,2014-07-02T11:45,NA,NA,701,63,YEARS,F,WHITE,HISPANIC OR LATINO,Pbo,Placebo,Pbo,Placebo,USA,12/26/13,-7,166,ALT,Alanine Aminotransfera,CHEMISTRY,27,U/L,6,34,27,27,U/L,6,34,NORMAL,NA,9,84,2014-03-26T15:15,84,,,,,,,,,,,,,,,,,,,lb,Alanine Aminotransfera,27,U/L
WEEK 16,CDISCPILOT01,LB,01-701-1015,1015,1/2/14,7/2/14,1/2/14,7/2/14,NA,2014-07-02T11:45,NA,NA,701,63,YEARS,F,WHITE,HISPANIC OR LATINO,Pbo,Placebo,Pbo,Placebo,USA,12/26/13,-7,201,ALT,Alanine Aminotransfera,CHEMISTRY,17,U/L,6,34,17,17,U/L,6,34,NORMAL,NA,10,112,2014-05-07T11:21,126,,,,,,,,,,,,,,,,,,,lb,Alanine Aminotransfera,17,U/L
WEEK 20,CDISCPILOT01,LB,01-701-1015,1015,1/2/14,7/2/14,1/2/14,7/2/14,NA,2014-07-02T11:45,NA,NA,701,63,YEARS,F,WHITE,HISPANIC OR LATINO,Pbo,Placebo,Pbo,Placebo,USA,12/26/13,-7,231,ALT,Alanine Aminotransfera,CHEMISTRY,21,U/L,6,34,21,21,U/L,6,34,NORMAL,NA,11,140,2014-05-21T10:58,140,,,,,,,,,,,,,,,,,,,lb,Alanine Aminotransfera,21,U/L
WEEK 24,CDISCPILOT01,LB,01-701-1015,1015,1/2/14,7/2/14,1/2/14,7/2/14,NA,2014-07-02T11:45,NA,NA,701,63,YEARS,F,WHITE,HISPANIC OR LATINO,Pbo,Placebo,Pbo,Placebo,USA,12/26/13,-7,261,ALT,Alanine Aminotransfera,CHEMISTRY,23,U/L,6,34,23,23,U/L,6,34,NORMAL,NA,12,168,2014-06-18T13:00,168,,,,,,,,,,,,,,,,,,,lb,Alanine Aminotransfera,23,U/L
WEEK 26,CDISCPILOT01,LB,01-701-1015,1015,1/2/14,7/2/14,1/2/14,7/2/14,NA,2014-07-02T11:45,NA,NA,701,63,YEARS,F,WHITE,HISPANIC OR LATINO,Pbo,Placebo,Pbo,Placebo,USA,12/26/13,-7,296,ALT,Alanine Aminotransfera,CHEMISTRY,23,U/L,6,34,23,23,U/L,6,34,NORMAL,NA,13,182,2014-07-02T11:45,182,,,,,,,,,,,,,,,,,,,lb,Alanine Aminotransfera,23,U/L
SCREENING 1,CDISCPILOT01,LB,01-701-1023,1023,8/5/12,9/2/12,8/5/12,9/1/12,NA,2/18/13,NA,NA,701,64,YEARS,M,WHITE,HISPANIC OR LATINO,Pbo,Placebo,Pbo,Placebo,USA,7/22/12,-14,3,ALT,Alanine Aminotransfera,CHEMISTRY,23,U/L,6,43,23,23,U/L,6,43,NORMAL,Y,1,-7,2012-07-22T12:13,-14,,,,,,,,,,,,,,,,,,,lb,Alanine Aminotransfera,23,U/L
WEEK 2,CDISCPILOT01,LB,01-701-1023,1023,8/5/12,9/2/12,8/5/12,9/1/12,NA,2/18/13,NA,NA,701,64,YEARS,M,WHITE,HISPANIC OR LATINO,Pbo,Placebo,Pbo,Placebo,USA,7/22/12,-14,40,ALT,Alanine Aminotransfera,CHEMISTRY,30,U/L,6,43,30,30,U/L,6,43,NORMAL,NA,4,14,2012-08-27T15:47,23,,,,,,,,,,,,,,,,,,,lb,Alanine Aminotransfera,30,U/L
WEEK 4,CDISCPILOT01,LB,01-701-1023,1023,8/5/12,9/2/12,8/5/12,9/1/12,NA,2/18/13,NA,NA,701,64,YEARS,M,WHITE,HISPANIC OR LATINO,Pbo,Placebo,Pbo,Placebo,USA,7/22/12,-14,75,ALT,Alanine Aminotransfera,CHEMISTRY,38,U/L,6,43,38,38,U/L,6,43,NORMAL,NA,5,28,2012-09-02T10:15,29,,,,,,,,,,,,,,,,,,,lb,Alanine Aminotransfera,38,U/L
SCREENING 1,CDISCPILOT01,LB,01-701-1028,1028,7/19/13,1/14/14,7/19/13,1/14/14,NA,2014-01-14T11:10,NA,NA,701,71,YEARS,M,WHITE,NOT HISPANIC OR LATINO,Xan_Hi,Xanomeline High Dose,Xan_Hi,Xanomeline High Dose,USA,7/11/13,-8,3,ALT,Alanine Aminotransfera,CHEMISTRY,26,U/L,6,35,26,26,U/L,6,35,NORMAL,Y,1,-7,2013-07-11T12:02,-8,,,,,,,,,,,,,,,,,,,lb,Alanine Aminotransfera,26,U/L
WEEK 2,CDISCPILOT01,LB,01-701-1028,1028,7/19/13,1/14/14,7/19/13,1/14/14,NA,2014-01-14T11:10,NA,NA,701,71,YEARS,M,WHITE,NOT HISPANIC OR LATINO,Xan_Hi,Xanomeline High Dose,Xan_Hi,Xanomeline High Dose,USA,7/11/13,-8,40,ALT,Alanine Aminotransfera,CHEMISTRY,30,U/L,6,35,30,30,U/L,6,35,NORMAL,NA,4,14,2013-08-01T09:15,14,,,,,,,,,,,,,,,,,,,lb,Alanine Aminotransfera,30,U/L
WEEK 4,CDISCPILOT01,LB,01-701-1028,1028,7/19/13,1/14/14,7/19/13,1/14/14,NA,2014-01-14T11:10,NA,NA,701,71,YEARS,M,WHITE,NOT HISPANIC OR LATINO,Xan_Hi,Xanomeline High Dose,Xan_Hi,Xanomeline High Dose,USA,7/11/13,-8,75,ALT,Alanine Aminotransfera,CHEMISTRY,29,U/L,6,35,29,29,U/L,6,35,NORMAL,NA,5,28,2013-08-14T13:24,27,,,,,,,,,,,,,,,,,,,lb,Alanine Aminotransfera,29,U/L
WEEK 6,CDISCPILOT01,LB,01-701-1028,1028,7/19/13,1/14/14,7/19/13,1/14/14,NA,2014-01-14T11:10,NA,NA,701,71,YEARS,M,WHITE,NOT HISPANIC OR LATINO,Xan_Hi,Xanomeline High Dose,Xan_Hi,Xanomeline High Dose,USA,7/11/13,-8,105,ALT,Alanine Aminotransfera,CHEMISTRY,32,U/L,6,35,32,32,U/L,6,35,NORMAL,NA,7,42,2013-08-29T11:54,42,,,,,,,,,,,,,,,,,,,lb,Alanine Aminotransfera,32,U/L
WEEK 8,CDISCPILOT01,LB,01-701-1028,1028,7/19/13,1/14/14,7/19/13,1/14/14,NA,2014-01-14T11:10,NA,NA,701,71,YEARS,M,WHITE,NOT HISPANIC OR LATINO,Xan_Hi,Xanomeline High Dose,Xan_Hi,Xanomeline High Dose,USA,7/11/13,-8,135,ALT,Alanine Aminotransfera,CHEMISTRY,33,U/L,6,35,33,33,U/L,6,35,NORMAL,NA,8,56,2013-09-10T09:13,54,,,,,,,,,,,,,,,,,,,lb,Alanine Aminotransfera,33,U/L
WEEK 12,CDISCPILOT01,LB,01-701-1028,1028,7/19/13,1/14/14,7/19/13,1/14/14,NA,2014-01-14T11:10,NA,NA,701,71,YEARS,M,WHITE,NOT HISPANIC OR LATINO,Xan_Hi,Xanomeline High Dose,Xan_Hi,Xanomeline High Dose,USA,7/11/13,-8,165,ALT,Alanine Aminotransfera,CHEMISTRY,29,U/L,6,35,29,29,U/L,6,35,NORMAL,NA,9,84,2013-10-09T08:42,83,,,,,,,,,,,,,,,,,,,lb,Alanine Aminotransfera,29,U/L
WEEK 16,CDISCPILOT01,LB,01-701-1028,1028,7/19/13,1/14/14,7/19/13,1/14/14,NA,2014-01-14T11:10,NA,NA,701,71,YEARS,M,WHITE,NOT HISPANIC OR LATINO,Xan_Hi,Xanomeline High Dose,Xan_Hi,Xanomeline High Dose,USA,7/11/13,-8,200,ALT,Alanine Aminotransfera,CHEMISTRY,24,U/L,6,35,24,24,U/L,6,35,NORMAL,NA,10,112,2013-11-06T10:08,111,,,,,,,,,,,,,,,,,,,lb,Alanine Aminotransfera,24,U/L
WEEK 20,CDISCPILOT01,LB,01-701-1028,1028,7/19/13,1/14/14,7/19/13,1/14/14,NA,2014-01-14T11:10,NA,NA,701,71,YEARS,M,WHITE,NOT HISPANIC OR LATINO,Xan_Hi,Xanomeline High Dose,Xan_Hi,Xanomeline High Dose,USA,7/11/13,-8,232,ALT,Alanine Aminotransfera,CHEMISTRY,22,U/L,6,35,22,22,U/L,6,35,NORMAL,NA,11,140,2013-12-04T15:10,139,,,,,,,,,,,,,,,,,,,lb,Alanine Aminotransfera,22,U/L
WEEK 24,CDISCPILOT01,LB,01-701-1028,1028,7/19/13,1/14/14,7/19/13,1/14/14,NA,2014-01-14T11:10,NA,NA,701,71,YEARS,M,WHITE,NOT HISPANIC OR LATINO,Xan_Hi,Xanomeline High Dose,Xan_Hi,Xanomeline High Dose,USA,7/11/13,-8,263,ALT,Alanine Aminotransfera,CHEMISTRY,24,U/L,6,35,24,24,U/L,6,35,NORMAL,NA,12,168,2014-01-06T10:00,172,,,,,,,,,,,,,,,,,,,lb,Alanine Aminotransfera,24,U/L
WEEK 26,CDISCPILOT01,LB,01-701-1028,1028,7/19/13,1/14/14,7/19/13,1/14/14,NA,2014-01-14T11:10,NA,NA,701,71,YEARS,M,WHITE,NOT HISPANIC OR LATINO,Xan_Hi,Xanomeline High Dose,Xan_Hi,Xanomeline High Dose,USA,7/11/13,-8,300,ALT,Alanine Aminotransfera,CHEMISTRY,26,U/L,6,35,26,26,U/L,6,35,NORMAL,NA,13,182,2014-01-14T11:10,180,,,,,,,,,,,,,,,,,,,lb,Alanine Aminotransfera,26,U/L
SCREENING 1,CDISCPILOT01,LB,01-701-1033,1033,3/18/14,4/14/14,3/18/14,3/31/14,NA,9/15/14,NA,NA,701,74,YEARS,M,WHITE,NOT HISPANIC OR LATINO,Xan_Lo,Xanomeline Low Dose,Xan_Lo,Xanomeline Low Dose,USA,3/10/14,-8,3,ALT,Alanine Aminotransfera,CHEMISTRY,16,U/L,6,35,16,16,U/L,6,35,NORMAL,Y,1,-7,2014-03-10T12:31,-8,,,,,,,,,,,,,,,,,,,lb,Alanine Aminotransfera,16,U/L
WEEK 2,CDISCPILOT01,LB,01-701-1033,1033,3/18/14,4/14/14,3/18/14,3/31/14,NA,9/15/14,NA,NA,701,74,YEARS,M,WHITE,NOT HISPANIC OR LATINO,Xan_Lo,Xanomeline Low Dose,Xan_Lo,Xanomeline Low Dose,USA,3/10/14,-8,40,ALT,Alanine Aminotransfera,CHEMISTRY,35,U/L,6,35,35,35,U/L,6,35,NORMAL,NA,4,14,2014-04-01T08:55,15,,,,,,,,,,,,,,,,,,,lb,Alanine Aminotransfera,35,U/L
WEEK 4,CDISCPILOT01,LB,01-701-1033,1033,3/18/14,4/14/14,3/18/14,3/31/14,NA,9/15/14,NA,NA,701,74,YEARS,M,WHITE,NOT HISPANIC OR LATINO,Xan_Lo,Xanomeline Low Dose,Xan_Lo,Xanomeline Low Dose,USA,3/10/14,-8,75,ALT,Alanine Aminotransfera,CHEMISTRY,14,U/L,6,35,14,14,U/L,6,35,NORMAL,NA,5,28,2014-04-14T10:38,28,,,,,,,,,,,,,,,,,,,lb,Alanine Aminotransfera,14,U/L
SCREENING 1,CDISCPILOT01,LB,01-701-1034,1034,7/1/14,12/30/14,7/1/14,12/30/14,NA,2014-12-30T09:50,NA,NA,701,77,YEARS,F,WHITE,NOT HISPANIC OR LATINO,Xan_Hi,Xanomeline High Dose,Xan_Hi,Xanomeline High Dose,USA,6/24/14,-7,3,ALT,Alanine Aminotransfera,CHEMISTRY,15,U/L,6,32,15,15,U/L,6,32,NORMAL,Y,1,-7,2014-06-24T15:30,-7,,,,,,,,,,,,,,,,,,,lb,Alanine Aminotransfera,15,U/L
WEEK 2,CDISCPILOT01,LB,01-701-1034,1034,7/1/14,12/30/14,7/1/14,12/30/14,NA,2014-12-30T09:50,NA,NA,701,77,YEARS,F,WHITE,NOT HISPANIC OR LATINO,Xan_Hi,Xanomeline High Dose,Xan_Hi,Xanomeline High Dose,USA,6/24/14,-7,41,ALT,Alanine Aminotransfera,CHEMISTRY,19,U/L,6,32,19,19,U/L,6,32,NORMAL,NA,4,14,2014-07-15T09:25,15,,,,,,,,,,,,,,,,,,,lb,Alanine Aminotransfera,19,U/L
WEEK 4,CDISCPILOT01,LB,01-701-1034,1034,7/1/14,12/30/14,7/1/14,12/30/14,NA,2014-12-30T09:50,NA,NA,701,77,YEARS,F,WHITE,NOT HISPANIC OR LATINO,Xan_Hi,Xanomeline High Dose,Xan_Hi,Xanomeline High Dose,USA,6/24/14,-7,77,ALT,Alanine Aminotransfera,CHEMISTRY,21,U/L,6,32,21,21,U/L,6,32,NORMAL,NA,5,28,2014-07-29T08:40,29,,,,,,,,,,,,,,,,,,,lb,Alanine Aminotransfera,21,U/L
WEEK 6,CDISCPILOT01,LB,01-701-1034,1034,7/1/14,12/30/14,7/1/14,12/30/14,NA,2014-12-30T09:50,NA,NA,701,77,YEARS,F,WHITE,NOT HISPANIC OR LATINO,Xan_Hi,Xanomeline High Dose,Xan_Hi,Xanomeline High Dose,USA,6/24/14,-7,108,ALT,Alanine Aminotransfera,CHEMISTRY,15,U/L,6,32,15,15,U/L,6,32,NORMAL,NA,7,42,2014-08-11T13:15,42,,,,,,,,,,,,,,,,,,,lb,Alanine Aminotransfera,15,U/L
WEEK 8,CDISCPILOT01,LB,01-701-1034,1034,7/1/14,12/30/14,7/1/14,12/30/14,NA,2014-12-30T09:50,NA,NA,701,77,YEARS,F,WHITE,NOT HISPANIC OR LATINO,Xan_Hi,Xanomeline High Dose,Xan_Hi,Xanomeline High Dose,USA,6/24/14,-7,139,ALT,Alanine Aminotransfera,CHEMISTRY,24,U/L,6,32,24,24,U/L,6,32,NORMAL,NA,8,56,2014-08-26T09:57,57,,,,,,,,,,,,,,,,,,,lb,Alanine Aminotransfera,24,U/L
WEEK 12,CDISCPILOT01,LB,01-701-1034,1034,7/1/14,12/30/14,7/1/14,12/30/14,NA,2014-12-30T09:50,NA,NA,701,77,YEARS,F,WHITE,NOT HISPANIC OR LATINO,Xan_Hi,Xanomeline High Dose,Xan_Hi,Xanomeline High Dose,USA,6/24/14,-7,169,ALT,Alanine Aminotransfera,CHEMISTRY,20,U/L,6,32,20,20,U/L,6,32,NORMAL,NA,9,84,2014-09-25T15:40,87,,,,,,,,,,,,,,,,,,,lb,Alanine Aminotransfera,20,U/L
WEEK 16,CDISCPILOT01,LB,01-701-1034,1034,7/1/14,12/30/14,7/1/14,12/30/14,NA,2014-12-30T09:50,NA,NA,701,77,YEARS,F,WHITE,NOT HISPANIC OR LATINO,Xan_Hi,Xanomeline High Dose,Xan_Hi,Xanomeline High Dose,USA,6/24/14,-7,204,ALT,Alanine Aminotransfera,CHEMISTRY,21,U/L,6,32,21,21,U/L,6,32,NORMAL,NA,10,112,2014-10-21T09:52,113,,,,,,,,,,,,,,,,,,,lb,Alanine Aminotransfera,21,U/L
WEEK 20,CDISCPILOT01,LB,01-701-1034,1034,7/1/14,12/30/14,7/1/14,12/30/14,NA,2014-12-30T09:50,NA,NA,701,77,YEARS,F,WHITE,NOT HISPANIC OR LATINO,Xan_Hi,Xanomeline High Dose,Xan_Hi,Xanomeline High Dose,USA,6/24/14,-7,235,ALT,Alanine Aminotransfera,CHEMISTRY,23,U/L,6,32,23,23,U/L,6,32,NORMAL,NA,11,140,2014-11-18T12:23,141,,,,,,,,,,,,,,,,,,,lb,Alanine Aminotransfera,23,U/L
WEEK 24,CDISCPILOT01,LB,01-701-1034,1034,7/1/14,12/30/14,7/1/14,12/30/14,NA,2014-12-30T09:50,NA,NA,701,77,YEARS,F,WHITE,NOT HISPANIC OR LATINO,Xan_Hi,Xanomeline High Dose,Xan_Hi,Xanomeline High Dose,USA,6/24/14,-7,266,ALT,Alanine Aminotransfera,CHEMISTRY,15,U/L,6,32,15,15,U/L,6,32,NORMAL,NA,12,168,2014-12-17T14:27,170,,,,,,,,,,,,,,,,,,,lb,Alanine Aminotransfera,15,U/L
WEEK 26,CDISCPILOT01,LB,01-701-1034,1034,7/1/14,12/30/14,7/1/14,12/30/14,NA,2014-12-30T09:50,NA,NA,701,77,YEARS,F,WHITE,NOT HISPANIC OR LATINO,Xan_Hi,Xanomeline High Dose,Xan_Hi,Xanomeline High Dose,USA,6/24/14,-7,302,ALT,Alanine Aminotransfera,CHEMISTRY,18,U/L,6,32,18,18,U/L,6,32,NORMAL,NA,13,182,2014-12-30T09:50,183,,,,,,,,,,,,,,,,,,,lb,Alanine Aminotransfera,18,U/L
SCREENING 1,CDISCPILOT01,LB,01-701-1047,1047,2/12/13,3/29/13,2/12/13,3/9/13,NA,7/28/13,NA,NA,701,85,YEARS,F,WHITE,NOT HISPANIC OR LATINO,Pbo,Placebo,Pbo,Placebo,USA,1/22/13,-21,3,ALT,Alanine Aminotransfera,CHEMISTRY,22,U/L,6,32,22,22,U/L,6,32,NORMAL,Y,1,-7,2013-01-22T14:36,-21,,,,,,,,,,,,,,,,,,,lb,Alanine Aminotransfera,22,U/L
WEEK 2,CDISCPILOT01,LB,01-701-1047,1047,2/12/13,3/29/13,2/12/13,3/9/13,NA,7/28/13,NA,NA,701,85,YEARS,F,WHITE,NOT HISPANIC OR LATINO,Pbo,Placebo,Pbo,Placebo,USA,1/22/13,-21,40,ALT,Alanine Aminotransfera,CHEMISTRY,16,U/L,6,32,16,16,U/L,6,32,NORMAL,NA,4,14,2013-02-25T12:10,14,,,,,,,,,,,,,,,,,,,lb,Alanine Aminotransfera,16,U/L
WEEK 4,CDISCPILOT01,LB,01-701-1047,1047,2/12/13,3/29/13,2/12/13,3/9/13,NA,7/28/13,NA,NA,701,85,YEARS,F,WHITE,NOT HISPANIC OR LATINO,Pbo,Placebo,Pbo,Placebo,USA,1/22/13,-21,75,ALT,Alanine Aminotransfera,CHEMISTRY,20,U/L,6,32,20,20,U/L,6,32,NORMAL,NA,5,28,2013-03-10T13:53,27,,,,,,,,,,,,,,,,,,,lb,Alanine Aminotransfera,20,U/L
UNSCHEDULED 6,CDISCPILOT01,LB,01-701-1047,1047,2/12/13,3/29/13,2/12/13,3/9/13,NA,7/28/13,NA,NA,701,85,YEARS,F,WHITE,NOT HISPANIC OR LATINO,Pbo,Placebo,Pbo,Placebo,USA,1/22/13,-21,122,ALT,Alanine Aminotransfera,CHEMISTRY,17,U/L,6,32,17,17,U/L,6,32,NORMAL,NA,6.1,NA,2013-04-07T11:20,55,,,,,,,,,,,,,,,,,,,lb,Alanine Aminotransfera,17,U/L
SCREENING 1,CDISCPILOT01,LB,01-701-1097,1097,1/1/14,7/9/14,1/1/14,7/9/14,NA,2014-07-09T09:39,NA,NA,701,68,YEARS,M,WHITE,NOT HISPANIC OR LATINO,Xan_Lo,Xanomeline Low Dose,Xan_Lo,Xanomeline Low Dose,USA,12/23/13,-9,3,ALT,Alanine Aminotransfera,CHEMISTRY,16,U/L,6,43,16,16,U/L,6,43,NORMAL,Y,1,-7,2013-12-23T12:30,-9,,,,,,,,,,,,,,,,,,,lb,Alanine Aminotransfera,16,U/L
WEEK 2,CDISCPILOT01,LB,01-701-1097,1097,1/1/14,7/9/14,1/1/14,7/9/14,NA,2014-07-09T09:39,NA,NA,701,68,YEARS,M,WHITE,NOT HISPANIC OR LATINO,Xan_Lo,Xanomeline Low Dose,Xan_Lo,Xanomeline Low Dose,USA,12/23/13,-9,40,ALT,Alanine Aminotransfera,CHEMISTRY,24,U/L,6,43,24,24,U/L,6,43,NORMAL,NA,4,14,2014-01-15T10:03,15,,,,,,,,,,,,,,,,,,,lb,Alanine Aminotransfera,24,U/L
WEEK 4,CDISCPILOT01,LB,01-701-1097,1097,1/1/14,7/9/14,1/1/14,7/9/14,NA,2014-07-09T09:39,NA,NA,701,68,YEARS,M,WHITE,NOT HISPANIC OR LATINO,Xan_Lo,Xanomeline Low Dose,Xan_Lo,Xanomeline Low Dose,USA,12/23/13,-9,75,ALT,Alanine Aminotransfera,CHEMISTRY,17,U/L,6,43,17,17,U/L,6,43,NORMAL,NA,5,28,2014-01-29T14:00,29,,,,,,,,,,,,,,,,,,,lb,Alanine Aminotransfera,17,U/L
WEEK 6,CDISCPILOT01,LB,01-701-1097,1097,1/1/14,7/9/14,1/1/14,7/9/14,NA,2014-07-09T09:39,NA,NA,701,68,YEARS,M,WHITE,NOT HISPANIC OR LATINO,Xan_Lo,Xanomeline Low Dose,Xan_Lo,Xanomeline Low Dose,USA,12/23/13,-9,105,ALT,Alanine Aminotransfera,CHEMISTRY,14,U/L,6,43,14,14,U/L,6,43,NORMAL,NA,7,42,2014-02-11T11:16,42,,,,,,,,,,,,,,,,,,,lb,Alanine Aminotransfera,14,U/L
WEEK 8,CDISCPILOT01,LB,01-701-1097,1097,1/1/14,7/9/14,1/1/14,7/9/14,NA,2014-07-09T09:39,NA,NA,701,68,YEARS,M,WHITE,NOT HISPANIC OR LATINO,Xan_Lo,Xanomeline Low Dose,Xan_Lo,Xanomeline Low Dose,USA,12/23/13,-9,135,ALT,Alanine Aminotransfera,CHEMISTRY,18,U/L,6,43,18,18,U/L,6,43,NORMAL,NA,8,56,2014-02-26T11:10,57,,,,,,,,,,,,,,,,,,,lb,Alanine Aminotransfera,18,U/L
WEEK 12,CDISCPILOT01,LB,01-701-1097,1097,1/1/14,7/9/14,1/1/14,7/9/14,NA,2014-07-09T09:39,NA,NA,701,68,YEARS,M,WHITE,NOT HISPANIC OR LATINO,Xan_Lo,Xanomeline Low Dose,Xan_Lo,Xanomeline Low Dose,USA,12/23/13,-9,165,ALT,Alanine Aminotransfera,CHEMISTRY,14,U/L,6,43,14,14,U/L,6,43,NORMAL,NA,9,84,2014-03-26T08:55,85,,,,,,,,,,,,,,,,,,,lb,Alanine Aminotransfera,14,U/L
WEEK 16,CDISCPILOT01,LB,01-701-1097,1097,1/1/14,7/9/14,1/1/14,7/9/14,NA,2014-07-09T09:39,NA,NA,701,68,YEARS,M,WHITE,NOT HISPANIC OR LATINO,Xan_Lo,Xanomeline Low Dose,Xan_Lo,Xanomeline Low Dose,USA,12/23/13,-9,200,ALT,Alanine Aminotransfera,CHEMISTRY,15,U/L,6,43,15,15,U/L,6,43,NORMAL,NA,10,112,2014-04-23T11:14,113,,,,,,,,,,,,,,,,,,,lb,Alanine Aminotransfera,15,U/L
WEEK 20,CDISCPILOT01,LB,01-701-1097,1097,1/1/14,7/9/14,1/1/14,7/9/14,NA,2014-07-09T09:39,NA,NA,701,68,YEARS,M,WHITE,NOT HISPANIC OR LATINO,Xan_Lo,Xanomeline Low Dose,Xan_Lo,Xanomeline Low Dose,USA,12/23/13,-9,230,ALT,Alanine Aminotransfera,CHEMISTRY,11,U/L,6,43,11,11,U/L,6,43,NORMAL,NA,11,140,2014-05-21T15:06,141,,,,,,,,,,,,,,,,,,,lb,Alanine Aminotransfera,11,U/L
WEEK 24,CDISCPILOT01,LB,01-701-1097,1097,1/1/14,7/9/14,1/1/14,7/9/14,NA,2014-07-09T09:39,NA,NA,701,68,YEARS,M,WHITE,NOT HISPANIC OR LATINO,Xan_Lo,Xanomeline Low Dose,Xan_Lo,Xanomeline Low Dose,USA,12/23/13,-9,260,ALT,Alanine Aminotransfera,CHEMISTRY,18,U/L,6,43,18,18,U/L,6,43,NORMAL,NA,12,168,2014-06-18T10:41,169,,,,,,,,,,,,,,,,,,,lb,Alanine Aminotransfera,18,U/L
WEEK 26,CDISCPILOT01,LB,01-701-1097,1097,1/1/14,7/9/14,1/1/14,7/9/14,NA,2014-07-09T09:39,NA,NA,701,68,YEARS,M,WHITE,NOT HISPANIC OR LATINO,Xan_Lo,Xanomeline Low Dose,Xan_Lo,Xanomeline Low Dose,USA,12/23/13,-9,295,ALT,Alanine Aminotransfera,CHEMISTRY,15,U/L,6,43,15,15,U/L,6,43,NORMAL,NA,13,182,2014-07-09T09:39,190,,,,,,,,,,,,,,,,,,,lb,Alanine Aminotransfera,15,U/L
SCREENING 1,CDISCPILOT01,LB,01-701-1111,1111,9/7/12,9/17/12,9/7/12,9/16/12,NA,2/22/13,NA,NA,701,81,YEARS,F,WHITE,NOT HISPANIC OR LATINO,Xan_Lo,Xanomeline Low Dose,Xan_Lo,Xanomeline Low Dose,USA,8/25/12,-13,3,ALT,Alanine Aminotransfera,CHEMISTRY,23,U/L,6,32,23,23,U/L,6,32,NORMAL,Y,1,-7,2012-08-25T15:25,-13,,,,,,,,,,,,,,,,,,,lb,Alanine Aminotransfera,23,U/L
WEEK 2,CDISCPILOT01,LB,01-701-1111,1111,9/7/12,9/17/12,9/7/12,9/16/12,NA,2/22/13,NA,NA,701,81,YEARS,F,WHITE,NOT HISPANIC OR LATINO,Xan_Lo,Xanomeline Low Dose,Xan_Lo,Xanomeline Low Dose,USA,8/25/12,-13,40,ALT,Alanine Aminotransfera,CHEMISTRY,19,U/L,6,32,19,19,U/L,6,32,NORMAL,NA,4,14,2012-09-17T11:48,11,,,,,,,,,,,,,,,,,,,lb,Alanine Aminotransfera,19,U/L
SCREENING 1,CDISCPILOT01,LB,01-701-1115,1115,11/30/12,1/23/13,11/30/12,1/23/13,NA,5/20/13,NA,NA,701,84,YEARS,M,WHITE,NOT HISPANIC OR LATINO,Xan_Lo,Xanomeline Low Dose,Xan_Lo,Xanomeline Low Dose,USA,11/23/12,-7,3,ALT,Alanine Aminotransfera,CHEMISTRY,18,U/L,6,35,18,18,U/L,6,35,NORMAL,Y,1,-7,2012-11-23T11:20,-7,,,,,,,,,,,,,,,,,,,lb,Alanine Aminotransfera,18,U/L
WEEK 2,CDISCPILOT01,LB,01-701-1115,1115,11/30/12,1/23/13,11/30/12,1/23/13,NA,5/20/13,NA,NA,701,84,YEARS,M,WHITE,NOT HISPANIC OR LATINO,Xan_Lo,Xanomeline Low Dose,Xan_Lo,Xanomeline Low Dose,USA,11/23/12,-7,40,ALT,Alanine Aminotransfera,CHEMISTRY,15,U/L,6,35,15,15,U/L,6,35,NORMAL,NA,4,14,2012-12-13T14:05,14,,,,,,,,,,,,,,,,,,,lb,Alanine Aminotransfera,15,U/L
WEEK 4,CDISCPILOT01,LB,01-701-1115,1115,11/30/12,1/23/13,11/30/12,1/23/13,NA,5/20/13,NA,NA,701,84,YEARS,M,WHITE,NOT HISPANIC OR LATINO,Xan_Lo,Xanomeline Low Dose,Xan_Lo,Xanomeline Low Dose,USA,11/23/12,-7,75,ALT,Alanine Aminotransfera,CHEMISTRY,13,U/L,6,35,13,13,U/L,6,35,NORMAL,NA,5,28,2012-12-26T08:44,27,,,,,,,,,,,,,,,,,,,lb,Alanine Aminotransfera,13,U/L
UNSCHEDULED 5,CDISCPILOT01,LB,01-701-1115,1115,11/30/12,1/23/13,11/30/12,1/23/13,NA,5/20/13,NA,NA,701,84,YEARS,M,WHITE,NOT HISPANIC OR LATINO,Xan_Lo,Xanomeline Low Dose,Xan_Lo,Xanomeline Low Dose,USA,11/23/12,-7,105,ALT,Alanine Aminotransfera,CHEMISTRY,16,U/L,6,35,16,16,U/L,6,35,NORMAL,NA,5.1,NA,2012-12-28T09:27,29,,,,,,,,,,,,,,,,,,,lb,Alanine Aminotransfera,16,U/L
WEEK 6,CDISCPILOT01,LB,01-701-1115,1115,11/30/12,1/23/13,11/30/12,1/23/13,NA,5/20/13,NA,NA,701,84,YEARS,M,WHITE,NOT HISPANIC OR LATINO,Xan_Lo,Xanomeline Low Dose,Xan_Lo,Xanomeline Low Dose,USA,11/23/12,-7,120,ALT,Alanine Aminotransfera,CHEMISTRY,18,U/L,6,35,18,18,U/L,6,35,NORMAL,NA,7,42,2013-01-10T15:20,42,,,,,,,,,,,,,,,,,,,lb,Alanine Aminotransfera,18,U/L
WEEK 8,CDISCPILOT01,LB,01-701-1115,1115,11/30/12,1/23/13,11/30/12,1/23/13,NA,5/20/13,NA,NA,701,84,YEARS,M,WHITE,NOT HISPANIC OR LATINO,Xan_Lo,Xanomeline Low Dose,Xan_Lo,Xanomeline Low Dose,USA,11/23/12,-7,150,ALT,Alanine Aminotransfera,CHEMISTRY,16,U/L,6,35,16,16,U/L,6,35,NORMAL,NA,8,56,2013-01-23T12:13,55,,,,,,,,,,,,,,,,,,,lb,Alanine Aminotransfera,16,U/L
SCREENING 1,CDISCPILOT01,LB,01-701-1118,1118,3/12/14,9/9/14,3/12/14,9/9/14,NA,2014-09-09T13:28,NA,NA,701,52,YEARS,M,WHITE,NOT HISPANIC OR LATINO,Pbo,Placebo,Pbo,Placebo,USA,2/27/14,-13,3,ALT,Alanine Aminotransfera,CHEMISTRY,15,U/L,6,43,15,15,U/L,6,43,NORMAL,Y,1,-7,2014-02-27T10:32,-13,,,,,,,,,,,,,,,,,,,lb,Alanine Aminotransfera,15,U/L
WEEK 2,CDISCPILOT01,LB,01-701-1118,1118,3/12/14,9/9/14,3/12/14,9/9/14,NA,2014-09-09T13:28,NA,NA,701,52,YEARS,M,WHITE,NOT HISPANIC OR LATINO,Pbo,Placebo,Pbo,Placebo,USA,2/27/14,-13,40,ALT,Alanine Aminotransfera,CHEMISTRY,7,U/L,6,43,7,7,U/L,6,43,NORMAL,NA,4,14,2014-03-26T10:50,15,,,,,,,,,,,,,,,,,,,lb,Alanine Aminotransfera,7,U/L
WEEK 4,CDISCPILOT01,LB,01-701-1118,1118,3/12/14,9/9/14,3/12/14,9/9/14,NA,2014-09-09T13:28,NA,NA,701,52,YEARS,M,WHITE,NOT HISPANIC OR LATINO,Pbo,Placebo,Pbo,Placebo,USA,2/27/14,-13,75,ALT,Alanine Aminotransfera,CHEMISTRY,15,U/L,6,43,15,15,U/L,6,43,NORMAL,NA,5,28,2014-04-09T11:01,29,,,,,,,,,,,,,,,,,,,lb,Alanine Aminotransfera,15,U/L
WEEK 6,CDISCPILOT01,LB,01-701-1118,1118,3/12/14,9/9/14,3/12/14,9/9/14,NA,2014-09-09T13:28,NA,NA,701,52,YEARS,M,WHITE,NOT HISPANIC OR LATINO,Pbo,Placebo,Pbo,Placebo,USA,2/27/14,-13,105,ALT,Alanine Aminotransfera,CHEMISTRY,11,U/L,6,43,11,11,U/L,6,43,NORMAL,NA,7,42,2014-04-23T15:22,43,,,,,,,,,,,,,,,,,,,lb,Alanine Aminotransfera,11,U/L
WEEK 8,CDISCPILOT01,LB,01-701-1118,1118,3/12/14,9/9/14,3/12/14,9/9/14,NA,2014-09-09T13:28,NA,NA,701,52,YEARS,M,WHITE,NOT HISPANIC OR LATINO,Pbo,Placebo,Pbo,Placebo,USA,2/27/14,-13,135,ALT,Alanine Aminotransfera,CHEMISTRY,15,U/L,6,43,15,15,U/L,6,43,NORMAL,NA,8,56,2014-05-08T09:30,58,,,,,,,,,,,,,,,,,,,lb,Alanine Aminotransfera,15,U/L
WEEK 12,CDISCPILOT01,LB,01-701-1118,1118,3/12/14,9/9/14,3/12/14,9/9/14,NA,2014-09-09T13:28,NA,NA,701,52,YEARS,M,WHITE,NOT HISPANIC OR LATINO,Pbo,Placebo,Pbo,Placebo,USA,2/27/14,-13,165,ALT,Alanine Aminotransfera,CHEMISTRY,16,U/L,6,43,16,16,U/L,6,43,NORMAL,NA,9,84,2014-06-05T08:14,86,,,,,,,,,,,,,,,,,,,lb,Alanine Aminotransfera,16,U/L
WEEK 16,CDISCPILOT01,LB,01-701-1118,1118,3/12/14,9/9/14,3/12/14,9/9/14,NA,2014-09-09T13:28,NA,NA,701,52,YEARS,M,WHITE,NOT HISPANIC OR LATINO,Pbo,Placebo,Pbo,Placebo,USA,2/27/14,-13,200,ALT,Alanine Aminotransfera,CHEMISTRY,15,U/L,6,43,15,15,U/L,6,43,NORMAL,NA,10,112,2014-07-02T10:12,113,,,,,,,,,,,,,,,,,,,lb,Alanine Aminotransfera,15,U/L
WEEK 20,CDISCPILOT01,LB,01-701-1118,1118,3/12/14,9/9/14,3/12/14,9/9/14,NA,2014-09-09T13:28,NA,NA,701,52,YEARS,M,WHITE,NOT HISPANIC OR LATINO,Pbo,Placebo,Pbo,Placebo,USA,2/27/14,-13,230,ALT,Alanine Aminotransfera,CHEMISTRY,13,U/L,6,43,13,13,U/L,6,43,NORMAL,NA,11,140,2014-07-30T13:50,141,,,,,,,,,,,,,,,,,,,lb,Alanine Aminotransfera,13,U/L
WEEK 24,CDISCPILOT01,LB,01-701-1118,1118,3/12/14,9/9/14,3/12/14,9/9/14,NA,2014-09-09T13:28,NA,NA,701,52,YEARS,M,WHITE,NOT HISPANIC OR LATINO,Pbo,Placebo,Pbo,Placebo,USA,2/27/14,-13,260,ALT,Alanine Aminotransfera,CHEMISTRY,13,U/L,6,43,13,13,U/L,6,43,NORMAL,NA,12,168,2014-08-27T11:27,169,,,,,,,,,,,,,,,,,,,lb,Alanine Aminotransfera,13,U/L
WEEK 26,CDISCPILOT01,LB,01-701-1118,1118,3/12/14,9/9/14,3/12/14,9/9/14,NA,2014-09-09T13:28,NA,NA,701,52,YEARS,M,WHITE,NOT HISPANIC OR LATINO,Pbo,Placebo,Pbo,Placebo,USA,2/27/14,-13,295,ALT,Alanine Aminotransfera,CHEMISTRY,10,U/L,6,43,10,10,U/L,6,43,NORMAL,NA,13,182,2014-09-09T13:28,182,,,,,,,,,,,,,,,,,,,lb,Alanine Aminotransfera,10,U/L
SCREENING 1,CDISCPILOT01,LB,01-701-1130,1130,2/15/14,8/16/14,2/15/14,8/16/14,NA,2014-08-16T13:10,NA,NA,701,84,YEARS,M,WHITE,NOT HISPANIC OR LATINO,Pbo,Placebo,Pbo,Placebo,USA,2/9/14,-6,3,ALT,Alanine Aminotransfera,CHEMISTRY,15,U/L,6,35,15,15,U/L,6,35,NORMAL,Y,1,-7,2014-02-09T12:01,-6,,,,,,,,,,,,,,,,,,,lb,Alanine Aminotransfera,15,U/L
WEEK 2,CDISCPILOT01,LB,01-701-1130,1130,2/15/14,8/16/14,2/15/14,8/16/14,NA,2014-08-16T13:10,NA,NA,701,84,YEARS,M,WHITE,NOT HISPANIC OR LATINO,Pbo,Placebo,Pbo,Placebo,USA,2/9/14,-6,40,ALT,Alanine Aminotransfera,CHEMISTRY,14,U/L,6,35,14,14,U/L,6,35,NORMAL,NA,4,14,2014-03-01T08:30,15,,,,,,,,,,,,,,,,,,,lb,Alanine Aminotransfera,14,U/L
WEEK 4,CDISCPILOT01,LB,01-701-1130,1130,2/15/14,8/16/14,2/15/14,8/16/14,NA,2014-08-16T13:10,NA,NA,701,84,YEARS,M,WHITE,NOT HISPANIC OR LATINO,Pbo,Placebo,Pbo,Placebo,USA,2/9/14,-6,75,ALT,Alanine Aminotransfera,CHEMISTRY,18,U/L,6,35,18,18,U/L,6,35,NORMAL,NA,5,28,2014-03-15T13:07,29,,,,,,,,,,,,,,,,,,,lb,Alanine Aminotransfera,18,U/L
WEEK 6,CDISCPILOT01,LB,01-701-1130,1130,2/15/14,8/16/14,2/15/14,8/16/14,NA,2014-08-16T13:10,NA,NA,701,84,YEARS,M,WHITE,NOT HISPANIC OR LATINO,Pbo,Placebo,Pbo,Placebo,USA,2/9/14,-6,105,ALT,Alanine Aminotransfera,CHEMISTRY,13,U/L,6,35,13,13,U/L,6,35,NORMAL,NA,7,42,2014-03-29T09:40,43,,,,,,,,,,,,,,,,,,,lb,Alanine Aminotransfera,13,U/L
WEEK 8,CDISCPILOT01,LB,01-701-1130,1130,2/15/14,8/16/14,2/15/14,8/16/14,NA,2014-08-16T13:10,NA,NA,701,84,YEARS,M,WHITE,NOT HISPANIC OR LATINO,Pbo,Placebo,Pbo,Placebo,USA,2/9/14,-6,135,ALT,Alanine Aminotransfera,CHEMISTRY,10,U/L,6,35,10,10,U/L,6,35,NORMAL,NA,8,56,2014-04-12T12:35,57,,,,,,,,,,,,,,,,,,,lb,Alanine Aminotransfera,10,U/L
WEEK 12,CDISCPILOT01,LB,01-701-1130,1130,2/15/14,8/16/14,2/15/14,8/16/14,NA,2014-08-16T13:10,NA,NA,701,84,YEARS,M,WHITE,NOT HISPANIC OR LATINO,Pbo,Placebo,Pbo,Placebo,USA,2/9/14,-6,165,ALT,Alanine Aminotransfera,CHEMISTRY,13,U/L,6,35,13,13,U/L,6,35,NORMAL,NA,9,84,2014-05-16T11:37,91,,,,,,,,,,,,,,,,,,,lb,Alanine Aminotransfera,13,U/L
WEEK 16,CDISCPILOT01,LB,01-701-1130,1130,2/15/14,8/16/14,2/15/14,8/16/14,NA,2014-08-16T13:10,NA,NA,701,84,YEARS,M,WHITE,NOT HISPANIC OR LATINO,Pbo,Placebo,Pbo,Placebo,USA,2/9/14,-6,200,ALT,Alanine Aminotransfera,CHEMISTRY,12,U/L,6,35,12,12,U/L,6,35,NORMAL,NA,10,112,2014-06-07T13:20,113,,,,,,,,,,,,,,,,,,,lb,Alanine Aminotransfera,12,U/L
WEEK 20,CDISCPILOT01,LB,01-701-1130,1130,2/15/14,8/16/14,2/15/14,8/16/14,NA,2014-08-16T13:10,NA,NA,701,84,YEARS,M,WHITE,NOT HISPANIC OR LATINO,Pbo,Placebo,Pbo,Placebo,USA,2/9/14,-6,230,ALT,Alanine Aminotransfera,CHEMISTRY,11,U/L,6,35,11,11,U/L,6,35,NORMAL,NA,11,140,2014-07-02T15:03,138,,,,,,,,,,,,,,,,,,,lb,Alanine Aminotransfera,11,U/L
WEEK 24,CDISCPILOT01,LB,01-701-1130,1130,2/15/14,8/16/14,2/15/14,8/16/14,NA,2014-08-16T13:10,NA,NA,701,84,YEARS,M,WHITE,NOT HISPANIC OR LATINO,Pbo,Placebo,Pbo,Placebo,USA,2/9/14,-6,260,ALT,Alanine Aminotransfera,CHEMISTRY,13,U/L,6,35,13,13,U/L,6,35,NORMAL,NA,12,168,2014-08-02T13:50,169,,,,,,,,,,,,,,,,,,,lb,Alanine Aminotransfera,13,U/L
WEEK 26,CDISCPILOT01,LB,01-701-1130,1130,2/15/14,8/16/14,2/15/14,8/16/14,NA,2014-08-16T13:10,NA,NA,701,84,YEARS,M,WHITE,NOT HISPANIC OR LATINO,Pbo,Placebo,Pbo,Placebo,USA,2/9/14,-6,295,ALT,Alanine Aminotransfera,CHEMISTRY,10,U/L,6,35,10,10,U/L,6,35,NORMAL,NA,13,182,2014-08-16T13:10,183,,,,,,,,,,,,,,,,,,,lb,Alanine Aminotransfera,10,U/L
SCREENING 1,CDISCPILOT01,LB,01-701-1133,1133,10/28/12,4/29/13,10/28/12,4/28/13,NA,2013-04-29T10:13,NA,NA,701,81,YEARS,F,WHITE,NOT HISPANIC OR LATINO,Xan_Hi,Xanomeline High Dose,Xan_Hi,Xanomeline High Dose,USA,10/23/12,-5,3,ALT,Alanine Aminotransfera,CHEMISTRY,23,U/L,6,32,23,23,U/L,6,32,NORMAL,Y,1,-7,2012-10-23T10:57,-5,,,,,,,,,,,,,,,,,,,lb,Alanine Aminotransfera,23,U/L
WEEK 4,CDISCPILOT01,LB,01-701-1133,1133,10/28/12,4/29/13,10/28/12,4/28/13,NA,2013-04-29T10:13,NA,NA,701,81,YEARS,F,WHITE,NOT HISPANIC OR LATINO,Xan_Hi,Xanomeline High Dose,Xan_Hi,Xanomeline High Dose,USA,10/23/12,-5,57,ALT,Alanine Aminotransfera,CHEMISTRY,21,U/L,6,32,21,21,U/L,6,32,NORMAL,NA,5,28,2012-11-26T11:52,30,,,,,,,,,,,,,,,,,,,lb,Alanine Aminotransfera,21,U/L
WEEK 6,CDISCPILOT01,LB,01-701-1133,1133,10/28/12,4/29/13,10/28/12,4/28/13,NA,2013-04-29T10:13,NA,NA,701,81,YEARS,F,WHITE,NOT HISPANIC OR LATINO,Xan_Hi,Xanomeline High Dose,Xan_Hi,Xanomeline High Dose,USA,10/23/12,-5,87,ALT,Alanine Aminotransfera,CHEMISTRY,15,U/L,6,32,15,15,U/L,6,32,NORMAL,NA,7,42,2012-12-11T08:20,45,,,,,,,,,,,,,,,,,,,lb,Alanine Aminotransfera,15,U/L
WEEK 8,CDISCPILOT01,LB,01-701-1133,1133,10/28/12,4/29/13,10/28/12,4/28/13,NA,2013-04-29T10:13,NA,NA,701,81,YEARS,F,WHITE,NOT HISPANIC OR LATINO,Xan_Hi,Xanomeline High Dose,Xan_Hi,Xanomeline High Dose,USA,10/23/12,-5,117,ALT,Alanine Aminotransfera,CHEMISTRY,16,U/L,6,32,16,16,U/L,6,32,NORMAL,NA,8,56,2012-12-24T10:54,58,,,,,,,,,,,,,,,,,,,lb,Alanine Aminotransfera,16,U/L
WEEK 12,CDISCPILOT01,LB,01-701-1133,1133,10/28/12,4/29/13,10/28/12,4/28/13,NA,2013-04-29T10:13,NA,NA,701,81,YEARS,F,WHITE,NOT HISPANIC OR LATINO,Xan_Hi,Xanomeline High Dose,Xan_Hi,Xanomeline High Dose,USA,10/23/12,-5,147,ALT,Alanine Aminotransfera,CHEMISTRY,16,U/L,6,32,16,16,U/L,6,32,NORMAL,NA,9,84,2013-01-22T14:05,87,,,,,,,,,,,,,,,,,,,lb,Alanine Aminotransfera,16,U/L
WEEK 16,CDISCPILOT01,LB,01-701-1133,1133,10/28/12,4/29/13,10/28/12,4/28/13,NA,2013-04-29T10:13,NA,NA,701,81,YEARS,F,WHITE,NOT HISPANIC OR LATINO,Xan_Hi,Xanomeline High Dose,Xan_Hi,Xanomeline High Dose,USA,10/23/12,-5,182,ALT,Alanine Aminotransfera,CHEMISTRY,15,U/L,6,32,15,15,U/L,6,32,NORMAL,NA,10,112,2013-02-18T11:37,114,,,,,,,,,,,,,,,,,,,lb,Alanine Aminotransfera,15,U/L
WEEK 20,CDISCPILOT01,LB,01-701-1133,1133,10/28/12,4/29/13,10/28/12,4/28/13,NA,2013-04-29T10:13,NA,NA,701,81,YEARS,F,WHITE,NOT HISPANIC OR LATINO,Xan_Hi,Xanomeline High Dose,Xan_Hi,Xanomeline High Dose,USA,10/23/12,-5,212,ALT,Alanine Aminotransfera,CHEMISTRY,19,U/L,6,32,19,19,U/L,6,32,NORMAL,NA,11,140,2013-03-18T16:33,142,,,,,,,,,,,,,,,,,,,lb,Alanine Aminotransfera,19,U/L
WEEK 24,CDISCPILOT01,LB,01-701-1133,1133,10/28/12,4/29/13,10/28/12,4/28/13,NA,2013-04-29T10:13,NA,NA,701,81,YEARS,F,WHITE,NOT HISPANIC OR LATINO,Xan_Hi,Xanomeline High Dose,Xan_Hi,Xanomeline High Dose,USA,10/23/12,-5,242,ALT,Alanine Aminotransfera,CHEMISTRY,18,U/L,6,32,18,18,U/L,6,32,NORMAL,NA,12,168,2013-04-18T15:30,173,,,,,,,,,,,,,,,,,,,lb,Alanine Aminotransfera,18,U/L
WEEK 26,CDISCPILOT01,LB,01-701-1133,1133,10/28/12,4/29/13,10/28/12,4/28/13,NA,2013-04-29T10:13,NA,NA,701,81,YEARS,F,WHITE,NOT HISPANIC OR LATINO,Xan_Hi,Xanomeline High Dose,Xan_Hi,Xanomeline High Dose,USA,10/23/12,-5,277,ALT,Alanine Aminotransfera,CHEMISTRY,17,U/L,6,32,17,17,U/L,6,32,NORMAL,NA,13,182,2013-04-29T10:13,184,,,,,,,,,,,,,,,,,,,lb,Alanine Aminotransfera,17,U/L
SCREENING 1,CDISCPILOT01,LB,01-701-1146,1146,5/20/13,6/30/13,5/20/13,6/26/13,NA,7/15/13,NA,NA,701,75,YEARS,F,WHITE,NOT HISPANIC OR LATINO,Xan_Hi,Xanomeline High Dose,Xan_Hi,Xanomeline High Dose,USA,5/7/13,-13,3,ALT,Alanine Aminotransfera,CHEMISTRY,15,U/L,6,32,15,15,U/L,6,32,NORMAL,Y,1,-7,2013-05-07T13:52,-13,,,,,,,,,,,,,,,,,,,lb,Alanine Aminotransfera,15,U/L
WEEK 2,CDISCPILOT01,LB,01-701-1146,1146,5/20/13,6/30/13,5/20/13,6/26/13,NA,7/15/13,NA,NA,701,75,YEARS,F,WHITE,NOT HISPANIC OR LATINO,Xan_Hi,Xanomeline High Dose,Xan_Hi,Xanomeline High Dose,USA,5/7/13,-13,40,ALT,Alanine Aminotransfera,CHEMISTRY,14,U/L,6,32,14,14,U/L,6,32,NORMAL,NA,4,14,2013-06-03T13:16,15,,,,,,,,,,,,,,,,,,,lb,Alanine Aminotransfera,14,U/L
WEEK 4,CDISCPILOT01,LB,01-701-1146,1146,5/20/13,6/30/13,5/20/13,6/26/13,NA,7/15/13,NA,NA,701,75,YEARS,F,WHITE,NOT HISPANIC OR LATINO,Xan_Hi,Xanomeline High Dose,Xan_Hi,Xanomeline High Dose,USA,5/7/13,-13,75,ALT,Alanine Aminotransfera,CHEMISTRY,16,U/L,6,32,16,16,U/L,6,32,NORMAL,NA,5,28,2013-06-16T12:45,28,,,,,,,,,,,,,,,,,,,lb,Alanine Aminotransfera,16,U/L
WEEK 6,CDISCPILOT01,LB,01-701-1146,1146,5/20/13,6/30/13,5/20/13,6/26/13,NA,7/15/13,NA,NA,701,75,YEARS,F,WHITE,NOT HISPANIC OR LATINO,Xan_Hi,Xanomeline High Dose,Xan_Hi,Xanomeline High Dose,USA,5/7/13,-13,105,ALT,Alanine Aminotransfera,CHEMISTRY,13,U/L,6,32,13,13,U/L,6,32,NORMAL,NA,7,42,2013-06-30T11:44,42,,,,,,,,,,,,,,,,,,,lb,Alanine Aminotransfera,13,U/L
SCREENING 1,CDISCPILOT01,LB,01-701-1148,1148,8/23/13,2/20/14,8/23/13,2/20/14,NA,2014-02-20T15:07,NA,NA,701,57,YEARS,M,WHITE,NOT HISPANIC OR LATINO,Xan_Hi,Xanomeline High Dose,Xan_Hi,Xanomeline High Dose,USA,8/14/13,-9,3,ALT,Alanine Aminotransfera,CHEMISTRY,34,U/L,6,43,34,34,U/L,6,43,NORMAL,Y,1,-7,2013-08-14T13:04,-9,,,,,,,,,,,,,,,,,,,lb,Alanine Aminotransfera,34,U/L
WEEK 2,CDISCPILOT01,LB,01-701-1148,1148,8/23/13,2/20/14,8/23/13,2/20/14,NA,2014-02-20T15:07,NA,NA,701,57,YEARS,M,WHITE,NOT HISPANIC OR LATINO,Xan_Hi,Xanomeline High Dose,Xan_Hi,Xanomeline High Dose,USA,8/14/13,-9,40,ALT,Alanine Aminotransfera,CHEMISTRY,41,U/L,6,43,41,41,U/L,6,43,NORMAL,NA,4,14,2013-09-05T15:43,14,,,,,,,,,,,,,,,,,,,lb,Alanine Aminotransfera,41,U/L
WEEK 4,CDISCPILOT01,LB,01-701-1148,1148,8/23/13,2/20/14,8/23/13,2/20/14,NA,2014-02-20T15:07,NA,NA,701,57,YEARS,M,WHITE,NOT HISPANIC OR LATINO,Xan_Hi,Xanomeline High Dose,Xan_Hi,Xanomeline High Dose,USA,8/14/13,-9,75,ALT,Alanine Aminotransfera,CHEMISTRY,35,U/L,6,43,35,35,U/L,6,43,NORMAL,NA,5,28,2013-09-19T14:30,28,,,,,,,,,,,,,,,,,,,lb,Alanine Aminotransfera,35,U/L
WEEK 6,CDISCPILOT01,LB,01-701-1148,1148,8/23/13,2/20/14,8/23/13,2/20/14,NA,2014-02-20T15:07,NA,NA,701,57,YEARS,M,WHITE,NOT HISPANIC OR LATINO,Xan_Hi,Xanomeline High Dose,Xan_Hi,Xanomeline High Dose,USA,8/14/13,-9,105,ALT,Alanine Aminotransfera,CHEMISTRY,31,U/L,6,43,31,31,U/L,6,43,NORMAL,NA,7,42,2013-10-03T12:17,42,,,,,,,,,,,,,,,,,,,lb,Alanine Aminotransfera,31,U/L
WEEK 8,CDISCPILOT01,LB,01-701-1148,1148,8/23/13,2/20/14,8/23/13,2/20/14,NA,2014-02-20T15:07,NA,NA,701,57,YEARS,M,WHITE,NOT HISPANIC OR LATINO,Xan_Hi,Xanomeline High Dose,Xan_Hi,Xanomeline High Dose,USA,8/14/13,-9,135,ALT,Alanine Aminotransfera,CHEMISTRY,31,U/L,6,43,31,31,U/L,6,43,NORMAL,NA,8,56,2013-10-18T15:46,57,,,,,,,,,,,,,,,,,,,lb,Alanine Aminotransfera,31,U/L
WEEK 12,CDISCPILOT01,LB,01-701-1148,1148,8/23/13,2/20/14,8/23/13,2/20/14,NA,2014-02-20T15:07,NA,NA,701,57,YEARS,M,WHITE,NOT HISPANIC OR LATINO,Xan_Hi,Xanomeline High Dose,Xan_Hi,Xanomeline High Dose,USA,8/14/13,-9,165,ALT,Alanine Aminotransfera,CHEMISTRY,39,U/L,6,43,39,39,U/L,6,43,NORMAL,NA,9,84,2013-11-17T10:59,87,,,,,,,,,,,,,,,,,,,lb,Alanine Aminotransfera,39,U/L
WEEK 16,CDISCPILOT01,LB,01-701-1148,1148,8/23/13,2/20/14,8/23/13,2/20/14,NA,2014-02-20T15:07,NA,NA,701,57,YEARS,M,WHITE,NOT HISPANIC OR LATINO,Xan_Hi,Xanomeline High Dose,Xan_Hi,Xanomeline High Dose,USA,8/14/13,-9,200,ALT,Alanine Aminotransfera,CHEMISTRY,33,U/L,6,43,33,33,U/L,6,43,NORMAL,NA,10,112,2013-12-13T15:57,113,,,,,,,,,,,,,,,,,,,lb,Alanine Aminotransfera,33,U/L
WEEK 20,CDISCPILOT01,LB,01-701-1148,1148,8/23/13,2/20/14,8/23/13,2/20/14,NA,2014-02-20T15:07,NA,NA,701,57,YEARS,M,WHITE,NOT HISPANIC OR LATINO,Xan_Hi,Xanomeline High Dose,Xan_Hi,Xanomeline High Dose,USA,8/14/13,-9,230,ALT,Alanine Aminotransfera,CHEMISTRY,32,U/L,6,43,32,32,U/L,6,43,NORMAL,NA,11,140,2014-01-10T08:40,141,,,,,,,,,,,,,,,,,,,lb,Alanine Aminotransfera,32,U/L
WEEK 24,CDISCPILOT01,LB,01-701-1148,1148,8/23/13,2/20/14,8/23/13,2/20/14,NA,2014-02-20T15:07,NA,NA,701,57,YEARS,M,WHITE,NOT HISPANIC OR LATINO,Xan_Hi,Xanomeline High Dose,Xan_Hi,Xanomeline High Dose,USA,8/14/13,-9,260,ALT,Alanine Aminotransfera,CHEMISTRY,37,U/L,6,43,37,37,U/L,6,43,NORMAL,NA,12,168,2014-02-08T14:40,170,,,,,,,,,,,,,,,,,,,lb,Alanine Aminotransfera,37,U/L
WEEK 26,CDISCPILOT01,LB,01-701-1148,1148,8/23/13,2/20/14,8/23/13,2/20/14,NA,2014-02-20T15:07,NA,NA,701,57,YEARS,M,WHITE,NOT HISPANIC OR LATINO,Xan_Hi,Xanomeline High Dose,Xan_Hi,Xanomeline High Dose,USA,8/14/13,-9,295,ALT,Alanine Aminotransfera,CHEMISTRY,28,U/L,6,43,28,28,U/L,6,43,NORMAL,NA,13,182,2014-02-20T15:07,182,,,,,,,,,,,,,,,,,,,lb,Alanine Aminotransfera,28,U/L
SCREENING 1,CDISCPILOT01,LB,01-701-1153,1153,9/23/13,4/1/14,9/23/13,3/16/14,NA,2014-04-01T14:25,NA,NA,701,79,YEARS,F,WHITE,NOT HISPANIC OR LATINO,Pbo,Placebo,Pbo,Placebo,USA,9/6/13,-17,3,ALT,Alanine Aminotransfera,CHEMISTRY,13,U/L,6,32,13,13,U/L,6,32,NORMAL,Y,1,-7,2013-09-06T14:50,-17,,,,,,,,,,,,,,,,,,,lb,Alanine Aminotransfera,13,U/L
WEEK 2,CDISCPILOT01,LB,01-701-1153,1153,9/23/13,4/1/14,9/23/13,3/16/14,NA,2014-04-01T14:25,NA,NA,701,79,YEARS,F,WHITE,NOT HISPANIC OR LATINO,Pbo,Placebo,Pbo,Placebo,USA,9/6/13,-17,40,ALT,Alanine Aminotransfera,CHEMISTRY,14,U/L,6,32,14,14,U/L,6,32,NORMAL,NA,4,14,2013-10-08T11:00,16,,,,,,,,,,,,,,,,,,,lb,Alanine Aminotransfera,14,U/L
WEEK 4,CDISCPILOT01,LB,01-701-1153,1153,9/23/13,4/1/14,9/23/13,3/16/14,NA,2014-04-01T14:25,NA,NA,701,79,YEARS,F,WHITE,NOT HISPANIC OR LATINO,Pbo,Placebo,Pbo,Placebo,USA,9/6/13,-17,75,ALT,Alanine Aminotransfera,CHEMISTRY,14,U/L,6,32,14,14,U/L,6,32,NORMAL,NA,5,28,2013-10-19T11:09,27,,,,,,,,,,,,,,,,,,,lb,Alanine Aminotransfera,14,U/L
WEEK 6,CDISCPILOT01,LB,01-701-1153,1153,9/23/13,4/1/14,9/23/13,3/16/14,NA,2014-04-01T14:25,NA,NA,701,79,YEARS,F,WHITE,NOT HISPANIC OR LATINO,Pbo,Placebo,Pbo,Placebo,USA,9/6/13,-17,110,ALT,Alanine Aminotransfera,CHEMISTRY,14,U/L,6,32,14,14,U/L,6,32,NORMAL,NA,7,42,2013-11-04T12:47,43,,,,,,,,,,,,,,,,,,,lb,Alanine Aminotransfera,14,U/L
WEEK 8,CDISCPILOT01,LB,01-701-1153,1153,9/23/13,4/1/14,9/23/13,3/16/14,NA,2014-04-01T14:25,NA,NA,701,79,YEARS,F,WHITE,NOT HISPANIC OR LATINO,Pbo,Placebo,Pbo,Placebo,USA,9/6/13,-17,140,ALT,Alanine Aminotransfera,CHEMISTRY,11,U/L,6,32,11,11,U/L,6,32,NORMAL,NA,8,56,2013-11-18T12:39,57,,,,,,,,,,,,,,,,,,,lb,Alanine Aminotransfera,11,U/L
WEEK 12,CDISCPILOT01,LB,01-701-1153,1153,9/23/13,4/1/14,9/23/13,3/16/14,NA,2014-04-01T14:25,NA,NA,701,79,YEARS,F,WHITE,NOT HISPANIC OR LATINO,Pbo,Placebo,Pbo,Placebo,USA,9/6/13,-17,170,ALT,Alanine Aminotransfera,CHEMISTRY,13,U/L,6,32,13,13,U/L,6,32,NORMAL,NA,9,84,2013-12-16T15:22,85,,,,,,,,,,,,,,,,,,,lb,Alanine Aminotransfera,13,U/L
WEEK 16,CDISCPILOT01,LB,01-701-1153,1153,9/23/13,4/1/14,9/23/13,3/16/14,NA,2014-04-01T14:25,NA,NA,701,79,YEARS,F,WHITE,NOT HISPANIC OR LATINO,Pbo,Placebo,Pbo,Placebo,USA,9/6/13,-17,215,ALT,Alanine Aminotransfera,CHEMISTRY,17,U/L,6,32,17,17,U/L,6,32,NORMAL,NA,10,112,2014-01-08T12:35,108,,,,,,,,,,,,,,,,,,,lb,Alanine Aminotransfera,17,U/L
WEEK 20,CDISCPILOT01,LB,01-701-1153,1153,9/23/13,4/1/14,9/23/13,3/16/14,NA,2014-04-01T14:25,NA,NA,701,79,YEARS,F,WHITE,NOT HISPANIC OR LATINO,Pbo,Placebo,Pbo,Placebo,USA,9/6/13,-17,245,ALT,Alanine Aminotransfera,CHEMISTRY,14,U/L,6,32,14,14,U/L,6,32,NORMAL,NA,11,140,2014-02-11T08:58,142,,,,,,,,,,,,,,,,,,,lb,Alanine Aminotransfera,14,U/L
WEEK 24,CDISCPILOT01,LB,01-701-1153,1153,9/23/13,4/1/14,9/23/13,3/16/14,NA,2014-04-01T14:25,NA,NA,701,79,YEARS,F,WHITE,NOT HISPANIC OR LATINO,Pbo,Placebo,Pbo,Placebo,USA,9/6/13,-17,275,ALT,Alanine Aminotransfera,CHEMISTRY,13,U/L,6,32,13,13,U/L,6,32,NORMAL,NA,12,168,2014-03-11T11:58,170,,,,,,,,,,,,,,,,,,,lb,Alanine Aminotransfera,13,U/L
WEEK 26,CDISCPILOT01,LB,01-701-1153,1153,9/23/13,4/1/14,9/23/13,3/16/14,NA,2014-04-01T14:25,NA,NA,701,79,YEARS,F,WHITE,NOT HISPANIC OR LATINO,Pbo,Placebo,Pbo,Placebo,USA,9/6/13,-17,310,ALT,Alanine Aminotransfera,CHEMISTRY,14,U/L,6,32,14,14,U/L,6,32,NORMAL,NA,13,182,2014-04-01T14:25,191,,,,,,,,,,,,,,,,,,,lb,Alanine Aminotransfera,14,U/L
SCREENING 1,CDISCPILOT01,LB,01-701-1180,1180,2/12/13,3/23/13,2/12/13,3/18/13,NA,4/7/13,NA,NA,701,56,YEARS,M,WHITE,NOT HISPANIC OR LATINO,Xan_Hi,Xanomeline High Dose,Xan_Hi,Xanomeline High Dose,USA,1/28/13,-15,3,ALT,Alanine Aminotransfera,CHEMISTRY,29,U/L,6,43,29,29,U/L,6,43,NORMAL,Y,1,-7,2013-01-28T11:00,-15,,,,,,,,,,,,,,,,,,,lb,Alanine Aminotransfera,29,U/L
WEEK 2,CDISCPILOT01,LB,01-701-1180,1180,2/12/13,3/23/13,2/12/13,3/18/13,NA,4/7/13,NA,NA,701,56,YEARS,M,WHITE,NOT HISPANIC OR LATINO,Xan_Hi,Xanomeline High Dose,Xan_Hi,Xanomeline High Dose,USA,1/28/13,-15,40,ALT,Alanine Aminotransfera,CHEMISTRY,29,U/L,6,43,29,29,U/L,6,43,NORMAL,NA,4,14,2013-02-25T12:10,14,,,,,,,,,,,,,,,,,,,lb,Alanine Aminotransfera,29,U/L
WEEK 4,CDISCPILOT01,LB,01-701-1180,1180,2/12/13,3/23/13,2/12/13,3/18/13,NA,4/7/13,NA,NA,701,56,YEARS,M,WHITE,NOT HISPANIC OR LATINO,Xan_Hi,Xanomeline High Dose,Xan_Hi,Xanomeline High Dose,USA,1/28/13,-15,75,ALT,Alanine Aminotransfera,CHEMISTRY,20,U/L,6,43,20,20,U/L,6,43,NORMAL,NA,5,28,2013-03-11T10:20,28,,,,,,,,,,,,,,,,,,,lb,Alanine Aminotransfera,20,U/L
WEEK 6,CDISCPILOT01,LB,01-701-1180,1180,2/12/13,3/23/13,2/12/13,3/18/13,NA,4/7/13,NA,NA,701,56,YEARS,M,WHITE,NOT HISPANIC OR LATINO,Xan_Hi,Xanomeline High Dose,Xan_Hi,Xanomeline High Dose,USA,1/28/13,-15,105,ALT,Alanine Aminotransfera,CHEMISTRY,19,U/L,6,43,19,19,U/L,6,43,NORMAL,NA,7,42,2013-03-23T12:45,40,,,,,,,,,,,,,,,,,,,lb,Alanine Aminotransfera,19,U/L
SCREENING 1,CDISCPILOT01,LB,01-701-1181,1181,12/5/13,12/12/13,12/5/13,12/9/13,NA,5/23/14,NA,NA,701,79,YEARS,F,WHITE,NOT HISPANIC OR LATINO,Xan_Hi,Xanomeline High Dose,Xan_Lo,Xanomeline Low Dose,USA,11/26/13,-9,3,ALT,Alanine Aminotransfera,CHEMISTRY,18,U/L,6,32,18,18,U/L,6,32,NORMAL,Y,1,-7,2013-11-26T13:36,-9,,,,,,,,,,,,,,,,,,,lb,Alanine Aminotransfera,18,U/L
WEEK 2,CDISCPILOT01,LB,01-701-1181,1181,12/5/13,12/12/13,12/5/13,12/9/13,NA,5/23/14,NA,NA,701,79,YEARS,F,WHITE,NOT HISPANIC OR LATINO,Xan_Hi,Xanomeline High Dose,Xan_Lo,Xanomeline Low Dose,USA,11/26/13,-9,40,ALT,Alanine Aminotransfera,CHEMISTRY,14,U/L,6,32,14,14,U/L,6,32,NORMAL,NA,4,14,2013-12-12T12:09,8,,,,,,,,,,,,,,,,,,,lb,Alanine Aminotransfera,14,U/L
SCREENING 1,CDISCPILOT01,LB,01-701-1188,1188,2/15/13,3/25/13,2/15/13,3/24/13,NA,8/4/13,NA,NA,701,71,YEARS,M,WHITE,NOT HISPANIC OR LATINO,Xan_Lo,Xanomeline Low Dose,Xan_Lo,Xanomeline Low Dose,USA,2/3/13,-12,3,ALT,Alanine Aminotransfera,CHEMISTRY,21,U/L,6,35,21,21,U/L,6,35,NORMAL,Y,1,-7,2013-02-03T12:37,-12,,,,,,,,,,,,,,,,,,,lb,Alanine Aminotransfera,21,U/L
WEEK 2,CDISCPILOT01,LB,01-701-1188,1188,2/15/13,3/25/13,2/15/13,3/24/13,NA,8/4/13,NA,NA,701,71,YEARS,M,WHITE,NOT HISPANIC OR LATINO,Xan_Lo,Xanomeline Low Dose,Xan_Lo,Xanomeline Low Dose,USA,2/3/13,-12,40,ALT,Alanine Aminotransfera,CHEMISTRY,29,U/L,6,35,29,29,U/L,6,35,NORMAL,NA,4,14,2013-03-02T08:31,16,,,,,,,,,,,,,,,,,,,lb,Alanine Aminotransfera,29,U/L
WEEK 4,CDISCPILOT01,LB,01-701-1188,1188,2/15/13,3/25/13,2/15/13,3/24/13,NA,8/4/13,NA,NA,701,71,YEARS,M,WHITE,NOT HISPANIC OR LATINO,Xan_Lo,Xanomeline Low Dose,Xan_Lo,Xanomeline Low Dose,USA,2/3/13,-12,75,ALT,Alanine Aminotransfera,CHEMISTRY,23,U/L,6,35,23,23,U/L,6,35,NORMAL,NA,5,28,2013-03-16T09:07,30,,,,,,,,,,,,,,,,,,,lb,Alanine Aminotransfera,23,U/L
WEEK 6,CDISCPILOT01,LB,01-701-1188,1188,2/15/13,3/25/13,2/15/13,3/24/13,NA,8/4/13,NA,NA,701,71,YEARS,M,WHITE,NOT HISPANIC OR LATINO,Xan_Lo,Xanomeline Low Dose,Xan_Lo,Xanomeline Low Dose,USA,2/3/13,-12,105,ALT,Alanine Aminotransfera,CHEMISTRY,19,U/L,6,35,19,19,U/L,6,35,NORMAL,NA,7,42,2013-03-25T15:08,39,,,,,,,,,,,,,,,,,,,lb,Alanine Aminotransfera,19,U/L
SCREENING 1,CDISCPILOT01,LB,01-701-1192,1192,7/22/12,1/20/13,7/22/12,1/20/13,NA,2013-01-20T15:47,NA,NA,701,80,YEARS,F,WHITE,NOT HISPANIC OR LATINO,Xan_Lo,Xanomeline Low Dose,Xan_Lo,Xanomeline Low Dose,USA,7/8/12,-14,3,ALT,Alanine Aminotransfera,CHEMISTRY,17,U/L,6,32,17,17,U/L,6,32,NORMAL,Y,1,-7,2012-07-08T15:50,-14,,,,,,,,,,,,,,,,,,,lb,Alanine Aminotransfera,17,U/L
WEEK 2,CDISCPILOT01,LB,01-701-1192,1192,7/22/12,1/20/13,7/22/12,1/20/13,NA,2013-01-20T15:47,NA,NA,701,80,YEARS,F,WHITE,NOT HISPANIC OR LATINO,Xan_Lo,Xanomeline Low Dose,Xan_Lo,Xanomeline Low Dose,USA,7/8/12,-14,40,ALT,Alanine Aminotransfera,CHEMISTRY,15,U/L,6,32,15,15,U/L,6,32,NORMAL,NA,4,14,2012-08-07T10:31,17,,,,,,,,,,,,,,,,,,,lb,Alanine Aminotransfera,15,U/L
WEEK 4,CDISCPILOT01,LB,01-701-1192,1192,7/22/12,1/20/13,7/22/12,1/20/13,NA,2013-01-20T15:47,NA,NA,701,80,YEARS,F,WHITE,NOT HISPANIC OR LATINO,Xan_Lo,Xanomeline Low Dose,Xan_Lo,Xanomeline Low Dose,USA,7/8/12,-14,75,ALT,Alanine Aminotransfera,CHEMISTRY,14,U/L,6,32,14,14,U/L,6,32,NORMAL,NA,5,28,2012-08-21T12:18,31,,,,,,,,,,,,,,,,,,,lb,Alanine Aminotransfera,14,U/L
WEEK 6,CDISCPILOT01,LB,01-701-1192,1192,7/22/12,1/20/13,7/22/12,1/20/13,NA,2013-01-20T15:47,NA,NA,701,80,YEARS,F,WHITE,NOT HISPANIC OR LATINO,Xan_Lo,Xanomeline Low Dose,Xan_Lo,Xanomeline Low Dose,USA,7/8/12,-14,110,ALT,Alanine Aminotransfera,CHEMISTRY,12,U/L,6,32,12,12,U/L,6,32,NORMAL,NA,7,42,2012-09-04T11:25,45,,,,,,,,,,,,,,,,,,,lb,Alanine Aminotransfera,12,U/L
WEEK 8,CDISCPILOT01,LB,01-701-1192,1192,7/22/12,1/20/13,7/22/12,1/20/13,NA,2013-01-20T15:47,NA,NA,701,80,YEARS,F,WHITE,NOT HISPANIC OR LATINO,Xan_Lo,Xanomeline Low Dose,Xan_Lo,Xanomeline Low Dose,USA,7/8/12,-14,140,ALT,Alanine Aminotransfera,CHEMISTRY,19,U/L,6,32,19,19,U/L,6,32,NORMAL,NA,8,56,2012-09-23T14:20,64,,,,,,,,,,,,,,,,,,,lb,Alanine Aminotransfera,19,U/L
WEEK 12,CDISCPILOT01,LB,01-701-1192,1192,7/22/12,1/20/13,7/22/12,1/20/13,NA,2013-01-20T15:47,NA,NA,701,80,YEARS,F,WHITE,NOT HISPANIC OR LATINO,Xan_Lo,Xanomeline Low Dose,Xan_Lo,Xanomeline Low Dose,USA,7/8/12,-14,170,ALT,Alanine Aminotransfera,CHEMISTRY,14,U/L,6,32,14,14,U/L,6,32,NORMAL,NA,9,84,2012-10-14T13:12,85,,,,,,,,,,,,,,,,,,,lb,Alanine Aminotransfera,14,U/L
WEEK 16,CDISCPILOT01,LB,01-701-1192,1192,7/22/12,1/20/13,7/22/12,1/20/13,NA,2013-01-20T15:47,NA,NA,701,80,YEARS,F,WHITE,NOT HISPANIC OR LATINO,Xan_Lo,Xanomeline Low Dose,Xan_Lo,Xanomeline Low Dose,USA,7/8/12,-14,205,ALT,Alanine Aminotransfera,CHEMISTRY,13,U/L,6,32,13,13,U/L,6,32,NORMAL,NA,10,112,2012-11-15T12:35,117,,,,,,,,,,,,,,,,,,,lb,Alanine Aminotransfera,13,U/L
WEEK 20,CDISCPILOT01,LB,01-701-1192,1192,7/22/12,1/20/13,7/22/12,1/20/13,NA,2013-01-20T15:47,NA,NA,701,80,YEARS,F,WHITE,NOT HISPANIC OR LATINO,Xan_Lo,Xanomeline Low Dose,Xan_Lo,Xanomeline Low Dose,USA,7/8/12,-14,235,ALT,Alanine Aminotransfera,CHEMISTRY,15,U/L,6,32,15,15,U/L,6,32,NORMAL,NA,11,140,2012-12-13T15:18,145,,,,,,,,,,,,,,,,,,,lb,Alanine Aminotransfera,15,U/L
WEEK 24,CDISCPILOT01,LB,01-701-1192,1192,7/22/12,1/20/13,7/22/12,1/20/13,NA,2013-01-20T15:47,NA,NA,701,80,YEARS,F,WHITE,NOT HISPANIC OR LATINO,Xan_Lo,Xanomeline Low Dose,Xan_Lo,Xanomeline Low Dose,USA,7/8/12,-14,265,ALT,Alanine Aminotransfera,CHEMISTRY,19,U/L,6,32,19,19,U/L,6,32,NORMAL,NA,12,168,2013-01-11T15:37,174,,,,,,,,,,,,,,,,,,,lb,Alanine Aminotransfera,19,U/L
WEEK 26,CDISCPILOT01,LB,01-701-1192,1192,7/22/12,1/20/13,7/22/12,1/20/13,NA,2013-01-20T15:47,NA,NA,701,80,YEARS,F,WHITE,NOT HISPANIC OR LATINO,Xan_Lo,Xanomeline Low Dose,Xan_Lo,Xanomeline Low Dose,USA,7/8/12,-14,300,ALT,Alanine Aminotransfera,CHEMISTRY,16,U/L,6,32,16,16,U/L,6,32,NORMAL,NA,13,182,2013-01-20T15:47,183,,,,,,,,,,,,,,,,,,,lb,Alanine Aminotransfera,16,U/L
SCREENING 1,CDISCPILOT01,LB,01-701-1203,1203,2/2/13,8/3/13,2/2/13,8/3/13,NA,2013-08-03T10:10,NA,NA,701,81,YEARS,F,BLACK OR AFRICAN AMERICAN,NOT HISPANIC OR LATINO,Pbo,Placebo,Pbo,Placebo,USA,1/25/13,-8,3,ALT,Alanine Aminotransfera,CHEMISTRY,13,U/L,6,32,13,13,U/L,6,32,NORMAL,Y,1,-7,2013-01-25T13:50,-8,,,,,,,,,,,,,,,,,,,lb,Alanine Aminotransfera,13,U/L
WEEK 2,CDISCPILOT01,LB,01-701-1203,1203,2/2/13,8/3/13,2/2/13,8/3/13,NA,2013-08-03T10:10,NA,NA,701,81,YEARS,F,BLACK OR AFRICAN AMERICAN,NOT HISPANIC OR LATINO,Pbo,Placebo,Pbo,Placebo,USA,1/25/13,-8,40,ALT,Alanine Aminotransfera,CHEMISTRY,14,U/L,6,32,14,14,U/L,6,32,NORMAL,NA,4,14,2013-02-23T11:56,22,,,,,,,,,,,,,,,,,,,lb,Alanine Aminotransfera,14,U/L
WEEK 4,CDISCPILOT01,LB,01-701-1203,1203,2/2/13,8/3/13,2/2/13,8/3/13,NA,2013-08-03T10:10,NA,NA,701,81,YEARS,F,BLACK OR AFRICAN AMERICAN,NOT HISPANIC OR LATINO,Pbo,Placebo,Pbo,Placebo,USA,1/25/13,-8,75,ALT,Alanine Aminotransfera,CHEMISTRY,10,U/L,6,32,10,10,U/L,6,32,NORMAL,NA,5,28,2013-03-02T10:05,29,,,,,,,,,,,,,,,,,,,lb,Alanine Aminotransfera,10,U/L
WEEK 6,CDISCPILOT01,LB,01-701-1203,1203,2/2/13,8/3/13,2/2/13,8/3/13,NA,2013-08-03T10:10,NA,NA,701,81,YEARS,F,BLACK OR AFRICAN AMERICAN,NOT HISPANIC OR LATINO,Pbo,Placebo,Pbo,Placebo,USA,1/25/13,-8,105,ALT,Alanine Aminotransfera,CHEMISTRY,12,U/L,6,32,12,12,U/L,6,32,NORMAL,NA,7,42,2013-03-16T16:00,43,,,,,,,,,,,,,,,,,,,lb,Alanine Aminotransfera,12,U/L
WEEK 8,CDISCPILOT01,LB,01-701-1203,1203,2/2/13,8/3/13,2/2/13,8/3/13,NA,2013-08-03T10:10,NA,NA,701,81,YEARS,F,BLACK OR AFRICAN AMERICAN,NOT HISPANIC OR LATINO,Pbo,Placebo,Pbo,Placebo,USA,1/25/13,-8,135,ALT,Alanine Aminotransfera,CHEMISTRY,11,U/L,6,32,11,11,U/L,6,32,NORMAL,NA,8,56,2013-03-30T12:42,57,,,,,,,,,,,,,,,,,,,lb,Alanine Aminotransfera,11,U/L
WEEK 12,CDISCPILOT01,LB,01-701-1203,1203,2/2/13,8/3/13,2/2/13,8/3/13,NA,2013-08-03T10:10,NA,NA,701,81,YEARS,F,BLACK OR AFRICAN AMERICAN,NOT HISPANIC OR LATINO,Pbo,Placebo,Pbo,Placebo,USA,1/25/13,-8,165,ALT,Alanine Aminotransfera,CHEMISTRY,16,U/L,6,32,16,16,U/L,6,32,NORMAL,NA,9,84,2013-05-09T13:25,97,,,,,,,,,,,,,,,,,,,lb,Alanine Aminotransfera,16,U/L
WEEK 16,CDISCPILOT01,LB,01-701-1203,1203,2/2/13,8/3/13,2/2/13,8/3/13,NA,2013-08-03T10:10,NA,NA,701,81,YEARS,F,BLACK OR AFRICAN AMERICAN,NOT HISPANIC OR LATINO,Pbo,Placebo,Pbo,Placebo,USA,1/25/13,-8,200,ALT,Alanine Aminotransfera,CHEMISTRY,11,U/L,6,32,11,11,U/L,6,32,NORMAL,NA,10,112,2013-05-25T10:44,113,,,,,,,,,,,,,,,,,,,lb,Alanine Aminotransfera,11,U/L
WEEK 20,CDISCPILOT01,LB,01-701-1203,1203,2/2/13,8/3/13,2/2/13,8/3/13,NA,2013-08-03T10:10,NA,NA,701,81,YEARS,F,BLACK OR AFRICAN AMERICAN,NOT HISPANIC OR LATINO,Pbo,Placebo,Pbo,Placebo,USA,1/25/13,-8,230,ALT,Alanine Aminotransfera,CHEMISTRY,13,U/L,6,32,13,13,U/L,6,32,NORMAL,NA,11,140,2013-06-22T08:50,141,,,,,,,,,,,,,,,,,,,lb,Alanine Aminotransfera,13,U/L
WEEK 24,CDISCPILOT01,LB,01-701-1203,1203,2/2/13,8/3/13,2/2/13,8/3/13,NA,2013-08-03T10:10,NA,NA,701,81,YEARS,F,BLACK OR AFRICAN AMERICAN,NOT HISPANIC OR LATINO,Pbo,Placebo,Pbo,Placebo,USA,1/25/13,-8,260,ALT,Alanine Aminotransfera,CHEMISTRY,10,U/L,6,32,10,10,U/L,6,32,NORMAL,NA,12,168,2013-07-22T12:49,171,,,,,,,,,,,,,,,,,,,lb,Alanine Aminotransfera,10,U/L
WEEK 26,CDISCPILOT01,LB,01-701-1203,1203,2/2/13,8/3/13,2/2/13,8/3/13,NA,2013-08-03T10:10,NA,NA,701,81,YEARS,F,BLACK OR AFRICAN AMERICAN,NOT HISPANIC OR LATINO,Pbo,Placebo,Pbo,Placebo,USA,1/25/13,-8,295,ALT,Alanine Aminotransfera,CHEMISTRY,14,U/L,6,32,14,14,U/L,6,32,NORMAL,NA,13,182,2013-08-03T10:10,183,,,,,,,,,,,,,,,,,,,lb,Alanine Aminotransfera,14,U/L
SCREENING 1,CDISCPILOT01,LB,01-701-1211,1211,11/15/12,1/14/13,11/15/12,1/12/13,NA,1/14/13,20,Y,701,76,YEARS,F,WHITE,NOT HISPANIC OR LATINO,Xan_Lo,Xanomeline Low Dose,Xan_Lo,Xanomeline Low Dose,USA,10/30/12,-16,3,ALT,Alanine Aminotransfera,CHEMISTRY,19,U/L,6,32,19,19,U/L,6,32,NORMAL,Y,1,-7,2012-10-30T14:26,-16,,,,,,,,,,,,,,,,,,,lb,Alanine Aminotransfera,19,U/L
WEEK 2,CDISCPILOT01,LB,01-701-1211,1211,11/15/12,1/14/13,11/15/12,1/12/13,NA,1/14/13,20,Y,701,76,YEARS,F,WHITE,NOT HISPANIC OR LATINO,Xan_Lo,Xanomeline Low Dose,Xan_Lo,Xanomeline Low Dose,USA,10/30/12,-16,40,ALT,Alanine Aminotransfera,CHEMISTRY,19,U/L,6,32,19,19,U/L,6,32,NORMAL,NA,4,14,2012-11-28T10:00,14,,,,,,,,,,,,,,,,,,,lb,Alanine Aminotransfera,19,U/L
WEEK 4,CDISCPILOT01,LB,01-701-1211,1211,11/15/12,1/14/13,11/15/12,1/12/13,NA,1/14/13,20,Y,701,76,YEARS,F,WHITE,NOT HISPANIC OR LATINO,Xan_Lo,Xanomeline Low Dose,Xan_Lo,Xanomeline Low Dose,USA,10/30/12,-16,75,ALT,Alanine Aminotransfera,CHEMISTRY,14,U/L,6,32,14,14,U/L,6,32,NORMAL,NA,5,28,2012-12-11T12:16,27,,,,,,,,,,,,,,,,,,,lb,Alanine Aminotransfera,14,U/L
WEEK 6,CDISCPILOT01,LB,01-701-1211,1211,11/15/12,1/14/13,11/15/12,1/12/13,NA,1/14/13,20,Y,701,76,YEARS,F,WHITE,NOT HISPANIC OR LATINO,Xan_Lo,Xanomeline Low Dose,Xan_Lo,Xanomeline Low Dose,USA,10/30/12,-16,105,ALT,Alanine Aminotransfera,CHEMISTRY,15,U/L,6,32,15,15,U/L,6,32,NORMAL,NA,7,42,2012-12-25T14:00,41,,,,,,,,,,,,,,,,,,,lb,Alanine Aminotransfera,15,U/L
WEEK 8,CDISCPILOT01,LB,01-701-1211,1211,11/15/12,1/14/13,11/15/12,1/12/13,NA,1/14/13,20,Y,701,76,YEARS,F,WHITE,NOT HISPANIC OR LATINO,Xan_Lo,Xanomeline Low Dose,Xan_Lo,Xanomeline Low Dose,USA,10/30/12,-16,135,ALT,Alanine Aminotransfera,CHEMISTRY,21,U/L,6,32,21,21,U/L,6,32,NORMAL,NA,8,56,2013-01-08T12:13,55,,,,,,,,,,,,,,,,,,,lb,Alanine Aminotransfera,21,U/L
SCREENING 1,CDISCPILOT01,LB,01-701-1234,1234,3/30/13,9/22/13,3/30/13,9/22/13,NA,2013-09-22T09:25,NA,NA,701,69,YEARS,M,WHITE,NOT HISPANIC OR LATINO,Pbo,Placebo,Pbo,Placebo,USA,3/20/13,-10,3,ALT,Alanine Aminotransfera,CHEMISTRY,18,U/L,6,35,18,18,U/L,6,35,NORMAL,Y,1,-7,2013-03-20T16:13,-10,,,,,,,,,,,,,,,,,,,lb,Alanine Aminotransfera,18,U/L
WEEK 2,CDISCPILOT01,LB,01-701-1234,1234,3/30/13,9/22/13,3/30/13,9/22/13,NA,2013-09-22T09:25,NA,NA,701,69,YEARS,M,WHITE,NOT HISPANIC OR LATINO,Pbo,Placebo,Pbo,Placebo,USA,3/20/13,-10,41,ALT,Alanine Aminotransfera,CHEMISTRY,30,U/L,6,35,30,30,U/L,6,35,NORMAL,NA,4,14,2013-04-21T08:49,23,,,,,,,,,,,,,,,,,,,lb,Alanine Aminotransfera,30,U/L
WEEK 4,CDISCPILOT01,LB,01-701-1234,1234,3/30/13,9/22/13,3/30/13,9/22/13,NA,2013-09-22T09:25,NA,NA,701,69,YEARS,M,WHITE,NOT HISPANIC OR LATINO,Pbo,Placebo,Pbo,Placebo,USA,3/20/13,-10,76,ALT,Alanine Aminotransfera,CHEMISTRY,26,U/L,6,35,26,26,U/L,6,35,NORMAL,NA,5,28,2013-04-28T09:30,30,,,,,,,,,,,,,,,,,,,lb,Alanine Aminotransfera,26,U/L
WEEK 6,CDISCPILOT01,LB,01-701-1234,1234,3/30/13,9/22/13,3/30/13,9/22/13,NA,2013-09-22T09:25,NA,NA,701,69,YEARS,M,WHITE,NOT HISPANIC OR LATINO,Pbo,Placebo,Pbo,Placebo,USA,3/20/13,-10,106,ALT,Alanine Aminotransfera,CHEMISTRY,20,U/L,6,35,20,20,U/L,6,35,NORMAL,NA,7,42,2013-05-08T07:23,40,,,,,,,,,,,,,,,,,,,lb,Alanine Aminotransfera,20,U/L
WEEK 8,CDISCPILOT01,LB,01-701-1234,1234,3/30/13,9/22/13,3/30/13,9/22/13,NA,2013-09-22T09:25,NA,NA,701,69,YEARS,M,WHITE,NOT HISPANIC OR LATINO,Pbo,Placebo,Pbo,Placebo,USA,3/20/13,-10,136,ALT,Alanine Aminotransfera,CHEMISTRY,22,U/L,6,35,22,22,U/L,6,35,NORMAL,NA,8,56,2013-05-26T09:19,58,,,,,,,,,,,,,,,,,,,lb,Alanine Aminotransfera,22,U/L
WEEK 12,CDISCPILOT01,LB,01-701-1234,1234,3/30/13,9/22/13,3/30/13,9/22/13,NA,2013-09-22T09:25,NA,NA,701,69,YEARS,M,WHITE,NOT HISPANIC OR LATINO,Pbo,Placebo,Pbo,Placebo,USA,3/20/13,-10,166,ALT,Alanine Aminotransfera,CHEMISTRY,40,U/L,6,35,40,40,U/L,6,35,HIGH,NA,9,84,2013-07-07T11:13,100,,,,,,,,,,,,,,,,,,,lb,Alanine Aminotransfera,40,U/L
WEEK 16,CDISCPILOT01,LB,01-701-1234,1234,3/30/13,9/22/13,3/30/13,9/22/13,NA,2013-09-22T09:25,NA,NA,701,69,YEARS,M,WHITE,NOT HISPANIC OR LATINO,Pbo,Placebo,Pbo,Placebo,USA,3/20/13,-10,201,ALT,Alanine Aminotransfera,CHEMISTRY,23,U/L,6,35,23,23,U/L,6,35,NORMAL,NA,10,112,2013-07-27T14:00,120,,,,,,,,,,,,,,,,,,,lb,Alanine Aminotransfera,23,U/L
WEEK 20,CDISCPILOT01,LB,01-701-1234,1234,3/30/13,9/22/13,3/30/13,9/22/13,NA,2013-09-22T09:25,NA,NA,701,69,YEARS,M,WHITE,NOT HISPANIC OR LATINO,Pbo,Placebo,Pbo,Placebo,USA,3/20/13,-10,231,ALT,Alanine Aminotransfera,CHEMISTRY,16,U/L,6,35,16,16,U/L,6,35,NORMAL,NA,11,140,2013-08-18T13:13,142,,,,,,,,,,,,,,,,,,,lb,Alanine Aminotransfera,16,U/L
WEEK 24,CDISCPILOT01,LB,01-701-1234,1234,3/30/13,9/22/13,3/30/13,9/22/13,NA,2013-09-22T09:25,NA,NA,701,69,YEARS,M,WHITE,NOT HISPANIC OR LATINO,Pbo,Placebo,Pbo,Placebo,USA,3/20/13,-10,261,ALT,Alanine Aminotransfera,CHEMISTRY,25,U/L,6,35,25,25,U/L,6,35,NORMAL,NA,12,168,2013-09-10T13:26,165,,,,,,,,,,,,,,,,,,,lb,Alanine Aminotransfera,25,U/L
WEEK 26,CDISCPILOT01,LB,01-701-1234,1234,3/30/13,9/22/13,3/30/13,9/22/13,NA,2013-09-22T09:25,NA,NA,701,69,YEARS,M,WHITE,NOT HISPANIC OR LATINO,Pbo,Placebo,Pbo,Placebo,USA,3/20/13,-10,296,ALT,Alanine Aminotransfera,CHEMISTRY,23,U/L,6,35,23,23,U/L,6,35,NORMAL,NA,13,182,2013-09-22T09:25,177,,,,,,,,,,,,,,,,,,,lb,Alanine Aminotransfera,23,U/L
SCREENING 1,CDISCPILOT01,LB,01-701-1239,1239,1/11/14,7/11/14,1/11/14,7/10/14,NA,2014-07-11T15:40,NA,NA,701,56,YEARS,M,WHITE,HISPANIC OR LATINO,Xan_Hi,Xanomeline High Dose,Xan_Hi,Xanomeline High Dose,USA,12/28/13,-14,3,ALT,Alanine Aminotransfera,CHEMISTRY,64,U/L,6,43,64,64,U/L,6,43,HIGH,Y,1,-7,2013-12-28T12:44,-14,,,,,,,,,,,,,,,,,,,lb,Alanine Aminotransfera,64,U/L
UNSCHEDULED 1,CDISCPILOT01,LB,01-701-1239,1239,1/11/14,7/11/14,1/11/14,7/10/14,NA,2014-07-11T15:40,NA,NA,701,56,YEARS,M,WHITE,HISPANIC OR LATINO,Xan_Hi,Xanomeline High Dose,Xan_Hi,Xanomeline High Dose,USA,12/28/13,-14,40,ALT,Alanine Aminotransfera,CHEMISTRY,61,U/L,6,43,61,61,U/L,6,43,HIGH,NA,1.1,NA,2014-01-06T09:00,-5,,,,,,,,,,,,,,,,,,,lb,Alanine Aminotransfera,61,U/L
WEEK 2,CDISCPILOT01,LB,01-701-1239,1239,1/11/14,7/11/14,1/11/14,7/10/14,NA,2014-07-11T15:40,NA,NA,701,56,YEARS,M,WHITE,HISPANIC OR LATINO,Xan_Hi,Xanomeline High Dose,Xan_Hi,Xanomeline High Dose,USA,12/28/13,-14,55,ALT,Alanine Aminotransfera,CHEMISTRY,47,U/L,6,43,47,47,U/L,6,43,HIGH,NA,4,14,2014-01-25T10:05,15,,,,,,,,,,,,,,,,,,,lb,Alanine Aminotransfera,47,U/L
WEEK 4,CDISCPILOT01,LB,01-701-1239,1239,1/11/14,7/11/14,1/11/14,7/10/14,NA,2014-07-11T15:40,NA,NA,701,56,YEARS,M,WHITE,HISPANIC OR LATINO,Xan_Hi,Xanomeline High Dose,Xan_Hi,Xanomeline High Dose,USA,12/28/13,-14,90,ALT,Alanine Aminotransfera,CHEMISTRY,61,U/L,6,43,61,61,U/L,6,43,HIGH,NA,5,28,2014-02-08T09:30,29,,,,,,,,,,,,,,,,,,,lb,Alanine Aminotransfera,61,U/L
WEEK 6,CDISCPILOT01,LB,01-701-1239,1239,1/11/14,7/11/14,1/11/14,7/10/14,NA,2014-07-11T15:40,NA,NA,701,56,YEARS,M,WHITE,HISPANIC OR LATINO,Xan_Hi,Xanomeline High Dose,Xan_Hi,Xanomeline High Dose,USA,12/28/13,-14,120,ALT,Alanine Aminotransfera,CHEMISTRY,60,U/L,6,43,60,60,U/L,6,43,HIGH,NA,7,42,2014-02-19T11:24,40,,,,,,,,,,,,,,,,,,,lb,Alanine Aminotransfera,60,U/L
WEEK 8,CDISCPILOT01,LB,01-701-1239,1239,1/11/14,7/11/14,1/11/14,7/10/14,NA,2014-07-11T15:40,NA,NA,701,56,YEARS,M,WHITE,HISPANIC OR LATINO,Xan_Hi,Xanomeline High Dose,Xan_Hi,Xanomeline High Dose,USA,12/28/13,-14,150,ALT,Alanine Aminotransfera,CHEMISTRY,71,U/L,6,43,71,71,U/L,6,43,HIGH,NA,8,56,2014-03-06T10:07,55,,,,,,,,,,,,,,,,,,,lb,Alanine Aminotransfera,71,U/L
WEEK 12,CDISCPILOT01,LB,01-701-1239,1239,1/11/14,7/11/14,1/11/14,7/10/14,NA,2014-07-11T15:40,NA,NA,701,56,YEARS,M,WHITE,HISPANIC OR LATINO,Xan_Hi,Xanomeline High Dose,Xan_Hi,Xanomeline High Dose,USA,12/28/13,-14,180,ALT,Alanine Aminotransfera,CHEMISTRY,70,U/L,6,43,70,70,U/L,6,43,HIGH,NA,9,84,2014-04-02T08:31,82,,,,,,,,,,,,,,,,,,,lb,Alanine Aminotransfera,70,U/L
WEEK 16,CDISCPILOT01,LB,01-701-1239,1239,1/11/14,7/11/14,1/11/14,7/10/14,NA,2014-07-11T15:40,NA,NA,701,56,YEARS,M,WHITE,HISPANIC OR LATINO,Xan_Hi,Xanomeline High Dose,Xan_Hi,Xanomeline High Dose,USA,12/28/13,-14,215,ALT,Alanine Aminotransfera,CHEMISTRY,35,U/L,6,43,35,35,U/L,6,43,NORMAL,NA,10,112,2014-05-02T11:38,112,,,,,,,,,,,,,,,,,,,lb,Alanine Aminotransfera,35,U/L
WEEK 20,CDISCPILOT01,LB,01-701-1239,1239,1/11/14,7/11/14,1/11/14,7/10/14,NA,2014-07-11T15:40,NA,NA,701,56,YEARS,M,WHITE,HISPANIC OR LATINO,Xan_Hi,Xanomeline High Dose,Xan_Hi,Xanomeline High Dose,USA,12/28/13,-14,245,ALT,Alanine Aminotransfera,CHEMISTRY,35,U/L,6,43,35,35,U/L,6,43,NORMAL,NA,11,140,2014-05-28T13:25,138,,,,,,,,,,,,,,,,,,,lb,Alanine Aminotransfera,35,U/L
WEEK 24,CDISCPILOT01,LB,01-701-1239,1239,1/11/14,7/11/14,1/11/14,7/10/14,NA,2014-07-11T15:40,NA,NA,701,56,YEARS,M,WHITE,HISPANIC OR LATINO,Xan_Hi,Xanomeline High Dose,Xan_Hi,Xanomeline High Dose,USA,12/28/13,-14,275,ALT,Alanine Aminotransfera,CHEMISTRY,43,U/L,6,43,43,43,U/L,6,43,NORMAL,NA,12,168,2014-06-27T10:11,168,,,,,,,,,,,,,,,,,,,lb,Alanine Aminotransfera,43,U/L
WEEK 26,CDISCPILOT01,LB,01-701-1239,1239,1/11/14,7/11/14,1/11/14,7/10/14,NA,2014-07-11T15:40,NA,NA,701,56,YEARS,M,WHITE,HISPANIC OR LATINO,Xan_Hi,Xanomeline High Dose,Xan_Hi,Xanomeline High Dose,USA,12/28/13,-14,310,ALT,Alanine Aminotransfera,CHEMISTRY,39,U/L,6,43,39,39,U/L,6,43,NORMAL,NA,13,182,2014-07-11T15:40,182,,,,,,,,,,,,,,,,,,,lb,Alanine Aminotransfera,39,U/L
SCREENING 1,CDISCPILOT01,LB,01-701-1275,1275,2/7/14,6/14/14,2/7/14,5/31/14,NA,2014-06-14T12:35,NA,NA,701,61,YEARS,M,AMERICAN INDIAN OR ALASKA NATIVE,NOT HISPANIC OR LATINO,Xan_Hi,Xanomeline High Dose,Xan_Hi,Xanomeline High Dose,USA,1/25/14,-13,3,ALT,Alanine Aminotransfera,CHEMISTRY,19,U/L,6,43,19,19,U/L,6,43,NORMAL,Y,1,-7,2014-01-25T09:26,-13,,,,,,,,,,,,,,,,,,,lb,Alanine Aminotransfera,19,U/L
WEEK 2,CDISCPILOT01,LB,01-701-1275,1275,2/7/14,6/14/14,2/7/14,5/31/14,NA,2014-06-14T12:35,NA,NA,701,61,YEARS,M,AMERICAN INDIAN OR ALASKA NATIVE,NOT HISPANIC OR LATINO,Xan_Hi,Xanomeline High Dose,Xan_Hi,Xanomeline High Dose,USA,1/25/14,-13,40,ALT,Alanine Aminotransfera,CHEMISTRY,19,U/L,6,43,19,19,U/L,6,43,NORMAL,NA,4,14,2014-02-22T08:22,16,,,,,,,,,,,,,,,,,,,lb,Alanine Aminotransfera,19,U/L
WEEK 4,CDISCPILOT01,LB,01-701-1275,1275,2/7/14,6/14/14,2/7/14,5/31/14,NA,2014-06-14T12:35,NA,NA,701,61,YEARS,M,AMERICAN INDIAN OR ALASKA NATIVE,NOT HISPANIC OR LATINO,Xan_Hi,Xanomeline High Dose,Xan_Hi,Xanomeline High Dose,USA,1/25/14,-13,75,ALT,Alanine Aminotransfera,CHEMISTRY,20,U/L,6,43,20,20,U/L,6,43,NORMAL,NA,5,28,2014-03-07T08:21,29,,,,,,,,,,,,,,,,,,,lb,Alanine Aminotransfera,20,U/L
WEEK 6,CDISCPILOT01,LB,01-701-1275,1275,2/7/14,6/14/14,2/7/14,5/31/14,NA,2014-06-14T12:35,NA,NA,701,61,YEARS,M,AMERICAN INDIAN OR ALASKA NATIVE,NOT HISPANIC OR LATINO,Xan_Hi,Xanomeline High Dose,Xan_Hi,Xanomeline High Dose,USA,1/25/14,-13,105,ALT,Alanine Aminotransfera,CHEMISTRY,22,U/L,6,43,22,22,U/L,6,43,NORMAL,NA,7,42,2014-03-22T07:59,44,,,,,,,,,,,,,,,,,,,lb,Alanine Aminotransfera,22,U/L
WEEK 8,CDISCPILOT01,LB,01-701-1275,1275,2/7/14,6/14/14,2/7/14,5/31/14,NA,2014-06-14T12:35,NA,NA,701,61,YEARS,M,AMERICAN INDIAN OR ALASKA NATIVE,NOT HISPANIC OR LATINO,Xan_Hi,Xanomeline High Dose,Xan_Hi,Xanomeline High Dose,USA,1/25/14,-13,135,ALT,Alanine Aminotransfera,CHEMISTRY,21,U/L,6,43,21,21,U/L,6,43,NORMAL,NA,8,56,2014-04-05T08:12,58,,,,,,,,,,,,,,,,,,,lb,Alanine Aminotransfera,21,U/L
WEEK 12,CDISCPILOT01,LB,01-701-1275,1275,2/7/14,6/14/14,2/7/14,5/31/14,NA,2014-06-14T12:35,NA,NA,701,61,YEARS,M,AMERICAN INDIAN OR ALASKA NATIVE,NOT HISPANIC OR LATINO,Xan_Hi,Xanomeline High Dose,Xan_Hi,Xanomeline High Dose,USA,1/25/14,-13,165,ALT,Alanine Aminotransfera,CHEMISTRY,15,U/L,6,43,15,15,U/L,6,43,NORMAL,NA,9,84,2014-05-03T08:15,86,,,,,,,,,,,,,,,,,,,lb,Alanine Aminotransfera,15,U/L
WEEK 16,CDISCPILOT01,LB,01-701-1275,1275,2/7/14,6/14/14,2/7/14,5/31/14,NA,2014-06-14T12:35,NA,NA,701,61,YEARS,M,AMERICAN INDIAN OR ALASKA NATIVE,NOT HISPANIC OR LATINO,Xan_Hi,Xanomeline High Dose,Xan_Hi,Xanomeline High Dose,USA,1/25/14,-13,197,ALT,Alanine Aminotransfera,CHEMISTRY,19,U/L,6,43,19,19,U/L,6,43,NORMAL,NA,10,112,2014-06-14T12:35,128,,,,,,,,,,,,,,,,,,,lb,Alanine Aminotransfera,19,U/L
SCREENING 1,CDISCPILOT01,LB,01-701-1287,1287,1/25/14,7/26/14,1/25/14,7/26/14,NA,2014-07-26T13:15,NA,NA,701,56,YEARS,F,WHITE,HISPANIC OR LATINO,Xan_Hi,Xanomeline High Dose,Xan_Hi,Xanomeline High Dose,USA,1/17/14,-8,3,ALT,Alanine Aminotransfera,CHEMISTRY,21,U/L,6,34,21,21,U/L,6,34,NORMAL,Y,1,-7,2014-01-17T12:16,-8,,,,,,,,,,,,,,,,,,,lb,Alanine Aminotransfera,21,U/L
WEEK 2,CDISCPILOT01,LB,01-701-1287,1287,1/25/14,7/26/14,1/25/14,7/26/14,NA,2014-07-26T13:15,NA,NA,701,56,YEARS,F,WHITE,HISPANIC OR LATINO,Xan_Hi,Xanomeline High Dose,Xan_Hi,Xanomeline High Dose,USA,1/17/14,-8,40,ALT,Alanine Aminotransfera,CHEMISTRY,27,U/L,6,34,27,27,U/L,6,34,NORMAL,NA,4,14,2014-02-11T10:50,18,,,,,,,,,,,,,,,,,,,lb,Alanine Aminotransfera,27,U/L
WEEK 4,CDISCPILOT01,LB,01-701-1287,1287,1/25/14,7/26/14,1/25/14,7/26/14,NA,2014-07-26T13:15,NA,NA,701,56,YEARS,F,WHITE,HISPANIC OR LATINO,Xan_Hi,Xanomeline High Dose,Xan_Hi,Xanomeline High Dose,USA,1/17/14,-8,75,ALT,Alanine Aminotransfera,CHEMISTRY,22,U/L,6,34,22,22,U/L,6,34,NORMAL,NA,5,28,2014-02-20T11:09,27,,,,,,,,,,,,,,,,,,,lb,Alanine Aminotransfera,22,U/L
WEEK 6,CDISCPILOT01,LB,01-701-1287,1287,1/25/14,7/26/14,1/25/14,7/26/14,NA,2014-07-26T13:15,NA,NA,701,56,YEARS,F,WHITE,HISPANIC OR LATINO,Xan_Hi,Xanomeline High Dose,Xan_Hi,Xanomeline High Dose,USA,1/17/14,-8,105,ALT,Alanine Aminotransfera,CHEMISTRY,22,U/L,6,34,22,22,U/L,6,34,NORMAL,NA,7,42,2014-03-06T08:23,41,,,,,,,,,,,,,,,,,,,lb,Alanine Aminotransfera,22,U/L
WEEK 8,CDISCPILOT01,LB,01-701-1287,1287,1/25/14,7/26/14,1/25/14,7/26/14,NA,2014-07-26T13:15,NA,NA,701,56,YEARS,F,WHITE,HISPANIC OR LATINO,Xan_Hi,Xanomeline High Dose,Xan_Hi,Xanomeline High Dose,USA,1/17/14,-8,135,ALT,Alanine Aminotransfera,CHEMISTRY,24,U/L,6,34,24,24,U/L,6,34,NORMAL,NA,8,56,2014-03-21T16:40,56,,,,,,,,,,,,,,,,,,,lb,Alanine Aminotransfera,24,U/L
WEEK 12,CDISCPILOT01,LB,01-701-1287,1287,1/25/14,7/26/14,1/25/14,7/26/14,NA,2014-07-26T13:15,NA,NA,701,56,YEARS,F,WHITE,HISPANIC OR LATINO,Xan_Hi,Xanomeline High Dose,Xan_Hi,Xanomeline High Dose,USA,1/17/14,-8,165,ALT,Alanine Aminotransfera,CHEMISTRY,27,U/L,6,34,27,27,U/L,6,34,NORMAL,NA,9,84,2014-04-17T14:00,83,,,,,,,,,,,,,,,,,,,lb,Alanine Aminotransfera,27,U/L
WEEK 16,CDISCPILOT01,LB,01-701-1287,1287,1/25/14,7/26/14,1/25/14,7/26/14,NA,2014-07-26T13:15,NA,NA,701,56,YEARS,F,WHITE,HISPANIC OR LATINO,Xan_Hi,Xanomeline High Dose,Xan_Hi,Xanomeline High Dose,USA,1/17/14,-8,200,ALT,Alanine Aminotransfera,CHEMISTRY,21,U/L,6,34,21,21,U/L,6,34,NORMAL,NA,10,112,2014-05-15T10:22,111,,,,,,,,,,,,,,,,,,,lb,Alanine Aminotransfera,21,U/L
WEEK 20,CDISCPILOT01,LB,01-701-1287,1287,1/25/14,7/26/14,1/25/14,7/26/14,NA,2014-07-26T13:15,NA,NA,701,56,YEARS,F,WHITE,HISPANIC OR LATINO,Xan_Hi,Xanomeline High Dose,Xan_Hi,Xanomeline High Dose,USA,1/17/14,-8,231,ALT,Alanine Aminotransfera,CHEMISTRY,22,U/L,6,34,22,22,U/L,6,34,NORMAL,NA,11,140,2014-06-12T15:55,139,,,,,,,,,,,,,,,,,,,lb,Alanine Aminotransfera,22,U/L
WEEK 24,CDISCPILOT01,LB,01-701-1287,1287,1/25/14,7/26/14,1/25/14,7/26/14,NA,2014-07-26T13:15,NA,NA,701,56,YEARS,F,WHITE,HISPANIC OR LATINO,Xan_Hi,Xanomeline High Dose,Xan_Hi,Xanomeline High Dose,USA,1/17/14,-8,261,ALT,Alanine Aminotransfera,CHEMISTRY,21,U/L,6,34,21,21,U/L,6,34,NORMAL,NA,12,168,2014-07-12T14:10,169,,,,,,,,,,,,,,,,,,,lb,Alanine Aminotransfera,21,U/L
WEEK 26,CDISCPILOT01,LB,01-701-1287,1287,1/25/14,7/26/14,1/25/14,7/26/14,NA,2014-07-26T13:15,NA,NA,701,56,YEARS,F,WHITE,HISPANIC OR LATINO,Xan_Hi,Xanomeline High Dose,Xan_Hi,Xanomeline High Dose,USA,1/17/14,-8,297,ALT,Alanine Aminotransfera,CHEMISTRY,23,U/L,6,34,23,23,U/L,6,34,NORMAL,NA,13,182,2014-07-26T13:15,183,,,,,,,,,,,,,,,,,,,lb,Alanine Aminotransfera,23,U/L
SCREENING 1,CDISCPILOT01,LB,01-701-1294,1294,3/24/13,6/14/13,3/24/13,6/14/13,NA,10/8/13,NA,NA,701,67,YEARS,M,WHITE,NOT HISPANIC OR LATINO,Xan_Lo,Xanomeline Low Dose,Xan_Lo,Xanomeline Low Dose,USA,3/17/13,-7,3,ALT,Alanine Aminotransfera,CHEMISTRY,20,U/L,6,43,20,20,U/L,6,43,NORMAL,Y,1,-7,2013-03-17T12:03,-7,,,,,,,,,,,,,,,,,,,lb,Alanine Aminotransfera,20,U/L
WEEK 2,CDISCPILOT01,LB,01-701-1294,1294,3/24/13,6/14/13,3/24/13,6/14/13,NA,10/8/13,NA,NA,701,67,YEARS,M,WHITE,NOT HISPANIC OR LATINO,Xan_Lo,Xanomeline Low Dose,Xan_Lo,Xanomeline Low Dose,USA,3/17/13,-7,40,ALT,Alanine Aminotransfera,CHEMISTRY,22,U/L,6,43,22,22,U/L,6,43,NORMAL,NA,4,14,2013-04-10T08:57,18,,,,,,,,,,,,,,,,,,,lb,Alanine Aminotransfera,22,U/L
WEEK 4,CDISCPILOT01,LB,01-701-1294,1294,3/24/13,6/14/13,3/24/13,6/14/13,NA,10/8/13,NA,NA,701,67,YEARS,M,WHITE,NOT HISPANIC OR LATINO,Xan_Lo,Xanomeline Low Dose,Xan_Lo,Xanomeline Low Dose,USA,3/17/13,-7,75,ALT,Alanine Aminotransfera,CHEMISTRY,29,U/L,6,43,29,29,U/L,6,43,NORMAL,NA,5,28,2013-04-24T12:40,32,,,,,,,,,,,,,,,,,,,lb,Alanine Aminotransfera,29,U/L
WEEK 6,CDISCPILOT01,LB,01-701-1294,1294,3/24/13,6/14/13,3/24/13,6/14/13,NA,10/8/13,NA,NA,701,67,YEARS,M,WHITE,NOT HISPANIC OR LATINO,Xan_Lo,Xanomeline Low Dose,Xan_Lo,Xanomeline Low Dose,USA,3/17/13,-7,105,ALT,Alanine Aminotransfera,CHEMISTRY,28,U/L,6,43,28,28,U/L,6,43,NORMAL,NA,7,42,2013-05-08T09:30,46,,,,,,,,,,,,,,,,,,,lb,Alanine Aminotransfera,28,U/L
WEEK 8,CDISCPILOT01,LB,01-701-1294,1294,3/24/13,6/14/13,3/24/13,6/14/13,NA,10/8/13,NA,NA,701,67,YEARS,M,WHITE,NOT HISPANIC OR LATINO,Xan_Lo,Xanomeline Low Dose,Xan_Lo,Xanomeline Low Dose,USA,3/17/13,-7,135,ALT,Alanine Aminotransfera,CHEMISTRY,28,U/L,6,43,28,28,U/L,6,43,NORMAL,NA,8,56,2013-05-22T09:27,60,,,,,,,,,,,,,,,,,,,lb,Alanine Aminotransfera,28,U/L
WEEK 12,CDISCPILOT01,LB,01-701-1294,1294,3/24/13,6/14/13,3/24/13,6/14/13,NA,10/8/13,NA,NA,701,67,YEARS,M,WHITE,NOT HISPANIC OR LATINO,Xan_Lo,Xanomeline Low Dose,Xan_Lo,Xanomeline Low Dose,USA,3/17/13,-7,165,ALT,Alanine Aminotransfera,CHEMISTRY,27,U/L,6,43,27,27,U/L,6,43,NORMAL,NA,9,84,2013-06-14T09:47,83,,,,,,,,,,,,,,,,,,,lb,Alanine Aminotransfera,27,U/L
SCREENING 1,CDISCPILOT01,LB,01-701-1302,1302,8/29/13,11/5/13,8/29/13,11/5/13,NA,2/13/14,NA,NA,701,61,YEARS,M,WHITE,NOT HISPANIC OR LATINO,Xan_Hi,Xanomeline High Dose,Xan_Hi,Xanomeline High Dose,USA,8/20/13,-9,3,ALT,Alanine Aminotransfera,CHEMISTRY,62,U/L,6,43,62,62,U/L,6,43,HIGH,Y,1,-7,2013-08-20T12:27,-9,,,,,,,,,,,,,,,,,,,lb,Alanine Aminotransfera,62,U/L
WEEK 2,CDISCPILOT01,LB,01-701-1302,1302,8/29/13,11/5/13,8/29/13,11/5/13,NA,2/13/14,NA,NA,701,61,YEARS,M,WHITE,NOT HISPANIC OR LATINO,Xan_Hi,Xanomeline High Dose,Xan_Hi,Xanomeline High Dose,USA,8/20/13,-9,40,ALT,Alanine Aminotransfera,CHEMISTRY,31,U/L,6,43,31,31,U/L,6,43,NORMAL,NA,4,14,2013-09-15T12:44,18,,,,,,,,,,,,,,,,,,,lb,Alanine Aminotransfera,31,U/L
WEEK 4,CDISCPILOT01,LB,01-701-1302,1302,8/29/13,11/5/13,8/29/13,11/5/13,NA,2/13/14,NA,NA,701,61,YEARS,M,WHITE,NOT HISPANIC OR LATINO,Xan_Hi,Xanomeline High Dose,Xan_Hi,Xanomeline High Dose,USA,8/20/13,-9,75,ALT,Alanine Aminotransfera,CHEMISTRY,34,U/L,6,43,34,34,U/L,6,43,NORMAL,NA,5,28,2013-09-24T08:16,27,,,,,,,,,,,,,,,,,,,lb,Alanine Aminotransfera,34,U/L
WEEK 6,CDISCPILOT01,LB,01-701-1302,1302,8/29/13,11/5/13,8/29/13,11/5/13,NA,2/13/14,NA,NA,701,61,YEARS,M,WHITE,NOT HISPANIC OR LATINO,Xan_Hi,Xanomeline High Dose,Xan_Hi,Xanomeline High Dose,USA,8/20/13,-9,105,ALT,Alanine Aminotransfera,CHEMISTRY,52,U/L,6,43,52,52,U/L,6,43,HIGH,NA,7,42,2013-10-08T15:30,41,,,,,,,,,,,,,,,,,,,lb,Alanine Aminotransfera,52,U/L
WEEK 8,CDISCPILOT01,LB,01-701-1302,1302,8/29/13,11/5/13,8/29/13,11/5/13,NA,2/13/14,NA,NA,701,61,YEARS,M,WHITE,NOT HISPANIC OR LATINO,Xan_Hi,Xanomeline High Dose,Xan_Hi,Xanomeline High Dose,USA,8/20/13,-9,135,ALT,Alanine Aminotransfera,CHEMISTRY,33,U/L,6,43,33,33,U/L,6,43,NORMAL,NA,8,56,2013-10-22T11:54,55,,,,,,,,,,,,,,,,,,,lb,Alanine Aminotransfera,33,U/L
WEEK 12,CDISCPILOT01,LB,01-701-1302,1302,8/29/13,11/5/13,8/29/13,11/5/13,NA,2/13/14,NA,NA,701,61,YEARS,M,WHITE,NOT HISPANIC OR LATINO,Xan_Hi,Xanomeline High Dose,Xan_Hi,Xanomeline High Dose,USA,8/20/13,-9,165,ALT,Alanine Aminotransfera,CHEMISTRY,24,U/L,6,43,24,24,U/L,6,43,NORMAL,NA,9,84,2013-11-05T13:54,69,,,,,,,,,,,,,,,,,,,lb,Alanine Aminotransfera,24,U/L
SCREENING 1,CDISCPILOT01,LB,01-701-1317,1317,5/22/14,11/20/14,5/22/14,11/20/14,NA,2014-11-20T11:54,NA,NA,701,68,YEARS,M,WHITE,NOT HISPANIC OR LATINO,Xan_Lo,Xanomeline Low Dose,Xan_Lo,Xanomeline Low Dose,USA,5/10/14,-12,3,ALT,Alanine Aminotransfera,CHEMISTRY,9,U/L,6,43,9,9,U/L,6,43,NORMAL,Y,1,-7,2014-05-13T10:44,-9,,,,,,,,,,,,,,,,,,,lb,Alanine Aminotransfera,9,U/L
UNSCHEDULED 1,CDISCPILOT01,LB,01-701-1317,1317,5/22/14,11/20/14,5/22/14,11/20/14,NA,2014-11-20T11:54,NA,NA,701,68,YEARS,M,WHITE,NOT HISPANIC OR LATINO,Xan_Lo,Xanomeline Low Dose,Xan_Lo,Xanomeline Low Dose,USA,5/10/14,-12,40,ALT,Alanine Aminotransfera,CHEMISTRY,11,U/L,6,43,11,11,U/L,6,43,NORMAL,NA,1.1,NA,2014-05-10T15:37,-12,,,,,,,,,,,,,,,,,,,lb,Alanine Aminotransfera,11,U/L
WEEK 2,CDISCPILOT01,LB,01-701-1317,1317,5/22/14,11/20/14,5/22/14,11/20/14,NA,2014-11-20T11:54,NA,NA,701,68,YEARS,M,WHITE,NOT HISPANIC OR LATINO,Xan_Lo,Xanomeline Low Dose,Xan_Lo,Xanomeline Low Dose,USA,5/10/14,-12,71,ALT,Alanine Aminotransfera,CHEMISTRY,13,U/L,6,43,13,13,U/L,6,43,NORMAL,NA,4,14,2014-06-05T08:25,15,,,,,,,,,,,,,,,,,,,lb,Alanine Aminotransfera,13,U/L
WEEK 4,CDISCPILOT01,LB,01-701-1317,1317,5/22/14,11/20/14,5/22/14,11/20/14,NA,2014-11-20T11:54,NA,NA,701,68,YEARS,M,WHITE,NOT HISPANIC OR LATINO,Xan_Lo,Xanomeline Low Dose,Xan_Lo,Xanomeline Low Dose,USA,5/10/14,-12,106,ALT,Alanine Aminotransfera,CHEMISTRY,9,U/L,6,43,9,9,U/L,6,43,NORMAL,NA,5,28,2014-06-19T16:00,29,,,,,,,,,,,,,,,,,,,lb,Alanine Aminotransfera,9,U/L
WEEK 6,CDISCPILOT01,LB,01-701-1317,1317,5/22/14,11/20/14,5/22/14,11/20/14,NA,2014-11-20T11:54,NA,NA,701,68,YEARS,M,WHITE,NOT HISPANIC OR LATINO,Xan_Lo,Xanomeline Low Dose,Xan_Lo,Xanomeline Low Dose,USA,5/10/14,-12,136,ALT,Alanine Aminotransfera,CHEMISTRY,8,U/L,6,43,8,8,U/L,6,43,NORMAL,NA,7,42,2014-07-03T09:50,43,,,,,,,,,,,,,,,,,,,lb,Alanine Aminotransfera,8,U/L
WEEK 8,CDISCPILOT01,LB,01-701-1317,1317,5/22/14,11/20/14,5/22/14,11/20/14,NA,2014-11-20T11:54,NA,NA,701,68,YEARS,M,WHITE,NOT HISPANIC OR LATINO,Xan_Lo,Xanomeline Low Dose,Xan_Lo,Xanomeline Low Dose,USA,5/10/14,-12,166,ALT,Alanine Aminotransfera,CHEMISTRY,11,U/L,6,43,11,11,U/L,6,43,NORMAL,NA,8,56,2014-07-22T13:54,62,,,,,,,,,,,,,,,,,,,lb,Alanine Aminotransfera,11,U/L
WEEK 12,CDISCPILOT01,LB,01-701-1317,1317,5/22/14,11/20/14,5/22/14,11/20/14,NA,2014-11-20T11:54,NA,NA,701,68,YEARS,M,WHITE,NOT HISPANIC OR LATINO,Xan_Lo,Xanomeline Low Dose,Xan_Lo,Xanomeline Low Dose,USA,5/10/14,-12,196,ALT,Alanine Aminotransfera,CHEMISTRY,9,U/L,6,43,9,9,U/L,6,43,NORMAL,NA,9,84,2014-08-15T14:12,86,,,,,,,,,,,,,,,,,,,lb,Alanine Aminotransfera,9,U/L
WEEK 16,CDISCPILOT01,LB,01-701-1317,1317,5/22/14,11/20/14,5/22/14,11/20/14,NA,2014-11-20T11:54,NA,NA,701,68,YEARS,M,WHITE,NOT HISPANIC OR LATINO,Xan_Lo,Xanomeline Low Dose,Xan_Lo,Xanomeline Low Dose,USA,5/10/14,-12,231,ALT,Alanine Aminotransfera,CHEMISTRY,11,U/L,6,43,11,11,U/L,6,43,NORMAL,NA,10,112,2014-09-11T12:35,113,,,,,,,,,,,,,,,,,,,lb,Alanine Aminotransfera,11,U/L
WEEK 20,CDISCPILOT01,LB,01-701-1317,1317,5/22/14,11/20/14,5/22/14,11/20/14,NA,2014-11-20T11:54,NA,NA,701,68,YEARS,M,WHITE,NOT HISPANIC OR LATINO,Xan_Lo,Xanomeline Low Dose,Xan_Lo,Xanomeline Low Dose,USA,5/10/14,-12,261,ALT,Alanine Aminotransfera,CHEMISTRY,11,U/L,6,43,11,11,U/L,6,43,NORMAL,NA,11,140,2014-10-09T11:40,141,,,,,,,,,,,,,,,,,,,lb,Alanine Aminotransfera,11,U/L
WEEK 24,CDISCPILOT01,LB,01-701-1317,1317,5/22/14,11/20/14,5/22/14,11/20/14,NA,2014-11-20T11:54,NA,NA,701,68,YEARS,M,WHITE,NOT HISPANIC OR LATINO,Xan_Lo,Xanomeline Low Dose,Xan_Lo,Xanomeline Low Dose,USA,5/10/14,-12,291,ALT,Alanine Aminotransfera,CHEMISTRY,10,U/L,6,43,10,10,U/L,6,43,NORMAL,NA,12,168,2014-11-06T13:15,169,,,,,,,,,,,,,,,,,,,lb,Alanine Aminotransfera,10,U/L
WEEK 26,CDISCPILOT01,LB,01-701-1317,1317,5/22/14,11/20/14,5/22/14,11/20/14,NA,2014-11-20T11:54,NA,NA,701,68,YEARS,M,WHITE,NOT HISPANIC OR LATINO,Xan_Lo,Xanomeline Low Dose,Xan_Lo,Xanomeline Low Dose,USA,5/10/14,-12,326,ALT,Alanine Aminotransfera,CHEMISTRY,14,U/L,6,43,14,14,U/L,6,43,NORMAL,NA,13,182,2014-11-20T11:54,183,,,,,,,,,,,,,,,,,,,lb,Alanine Aminotransfera,14,U/L
SCREENING 1,CDISCPILOT01,LB,01-701-1324,1324,10/2/12,4/2/13,10/2/12,4/2/13,NA,2013-04-02T11:35,NA,NA,701,79,YEARS,M,WHITE,NOT HISPANIC OR LATINO,Xan_Lo,Xanomeline Low Dose,Xan_Lo,Xanomeline Low Dose,USA,9/16/12,-16,3,ALT,Alanine Aminotransfera,CHEMISTRY,11,U/L,6,35,11,11,U/L,6,35,NORMAL,Y,1,-7,2012-09-16T13:35,-16,,,,,,,,,,,,,,,,,,,lb,Alanine Aminotransfera,11,U/L
UNSCHEDULED 4,CDISCPILOT01,LB,01-701-1324,1324,10/2/12,4/2/13,10/2/12,4/2/13,NA,2013-04-02T11:35,NA,NA,701,79,YEARS,M,WHITE,NOT HISPANIC OR LATINO,Xan_Lo,Xanomeline Low Dose,Xan_Lo,Xanomeline Low Dose,USA,9/16/12,-16,51,ALT,Alanine Aminotransfera,CHEMISTRY,10,U/L,6,35,10,10,U/L,6,35,NORMAL,NA,4.1,NA,2012-10-25T10:11,24,,,,,,,,,,,,,,,,,,,lb,Alanine Aminotransfera,10,U/L
WEEK 4,CDISCPILOT01,LB,01-701-1324,1324,10/2/12,4/2/13,10/2/12,4/2/13,NA,2013-04-02T11:35,NA,NA,701,79,YEARS,M,WHITE,NOT HISPANIC OR LATINO,Xan_Lo,Xanomeline Low Dose,Xan_Lo,Xanomeline Low Dose,USA,9/16/12,-16,84,ALT,Alanine Aminotransfera,CHEMISTRY,10,U/L,6,35,10,10,U/L,6,35,NORMAL,NA,5,28,2012-10-30T12:40,29,,,,,,,,,,,,,,,,,,,lb,Alanine Aminotransfera,10,U/L
WEEK 6,CDISCPILOT01,LB,01-701-1324,1324,10/2/12,4/2/13,10/2/12,4/2/13,NA,2013-04-02T11:35,NA,NA,701,79,YEARS,M,WHITE,NOT HISPANIC OR LATINO,Xan_Lo,Xanomeline Low Dose,Xan_Lo,Xanomeline Low Dose,USA,9/16/12,-16,114,ALT,Alanine Aminotransfera,CHEMISTRY,8,U/L,6,35,8,8,U/L,6,35,NORMAL,NA,7,42,2012-11-13T13:56,43,,,,,,,,,,,,,,,,,,,lb,Alanine Aminotransfera,8,U/L
WEEK 8,CDISCPILOT01,LB,01-701-1324,1324,10/2/12,4/2/13,10/2/12,4/2/13,NA,2013-04-02T11:35,NA,NA,701,79,YEARS,M,WHITE,NOT HISPANIC OR LATINO,Xan_Lo,Xanomeline Low Dose,Xan_Lo,Xanomeline Low Dose,USA,9/16/12,-16,144,ALT,Alanine Aminotransfera,CHEMISTRY,15,U/L,6,35,15,15,U/L,6,35,NORMAL,NA,8,56,2012-11-25T12:35,55,,,,,,,,,,,,,,,,,,,lb,Alanine Aminotransfera,15,U/L
WEEK 12,CDISCPILOT01,LB,01-701-1324,1324,10/2/12,4/2/13,10/2/12,4/2/13,NA,2013-04-02T11:35,NA,NA,701,79,YEARS,M,WHITE,NOT HISPANIC OR LATINO,Xan_Lo,Xanomeline Low Dose,Xan_Lo,Xanomeline Low Dose,USA,9/16/12,-16,174,ALT,Alanine Aminotransfera,CHEMISTRY,12,U/L,6,35,12,12,U/L,6,35,NORMAL,NA,9,84,2012-12-25T08:58,85,,,,,,,,,,,,,,,,,,,lb,Alanine Aminotransfera,12,U/L
WEEK 16,CDISCPILOT01,LB,01-701-1324,1324,10/2/12,4/2/13,10/2/12,4/2/13,NA,2013-04-02T11:35,NA,NA,701,79,YEARS,M,WHITE,NOT HISPANIC OR LATINO,Xan_Lo,Xanomeline Low Dose,Xan_Lo,Xanomeline Low Dose,USA,9/16/12,-16,209,ALT,Alanine Aminotransfera,CHEMISTRY,11,U/L,6,35,11,11,U/L,6,35,NORMAL,NA,10,112,2013-01-22T12:21,113,,,,,,,,,,,,,,,,,,,lb,Alanine Aminotransfera,11,U/L
WEEK 20,CDISCPILOT01,LB,01-701-1324,1324,10/2/12,4/2/13,10/2/12,4/2/13,NA,2013-04-02T11:35,NA,NA,701,79,YEARS,M,WHITE,NOT HISPANIC OR LATINO,Xan_Lo,Xanomeline Low Dose,Xan_Lo,Xanomeline Low Dose,USA,9/16/12,-16,239,ALT,Alanine Aminotransfera,CHEMISTRY,12,U/L,6,35,12,12,U/L,6,35,NORMAL,NA,11,140,2013-02-19T15:05,141,,,,,,,,,,,,,,,,,,,lb,Alanine Aminotransfera,12,U/L
WEEK 24,CDISCPILOT01,LB,01-701-1324,1324,10/2/12,4/2/13,10/2/12,4/2/13,NA,2013-04-02T11:35,NA,NA,701,79,YEARS,M,WHITE,NOT HISPANIC OR LATINO,Xan_Lo,Xanomeline Low Dose,Xan_Lo,Xanomeline Low Dose,USA,9/16/12,-16,269,ALT,Alanine Aminotransfera,CHEMISTRY,7,U/L,6,35,7,7,U/L,6,35,NORMAL,NA,12,168,2013-03-19T12:25,169,,,,,,,,,,,,,,,,,,,lb,Alanine Aminotransfera,7,U/L
WEEK 26,CDISCPILOT01,LB,01-701-1324,1324,10/2/12,4/2/13,10/2/12,4/2/13,NA,2013-04-02T11:35,NA,NA,701,79,YEARS,M,WHITE,NOT HISPANIC OR LATINO,Xan_Lo,Xanomeline Low Dose,Xan_Lo,Xanomeline Low Dose,USA,9/16/12,-16,304,ALT,Alanine Aminotransfera,CHEMISTRY,7,U/L,6,35,7,7,U/L,6,35,NORMAL,NA,13,182,2013-04-02T11:35,183,,,,,,,,,,,,,,,,,,,lb,Alanine Aminotransfera,7,U/L
SCREENING 1,CDISCPILOT01,LB,01-701-1341,1341,1/5/13,2/7/13,1/5/13,1/26/13,NA,2/21/13,NA,NA,701,51,YEARS,M,WHITE,NOT HISPANIC OR LATINO,Xan_Lo,Xanomeline Low Dose,Xan_Lo,Xanomeline Low Dose,USA,12/22/12,-14,3,ALT,Alanine Aminotransfera,CHEMISTRY,58,U/L,6,43,58,58,U/L,6,43,HIGH,Y,1,-7,2012-12-22T14:56,-14,,,,,,,,,,,,,,,,,,,lb,Alanine Aminotransfera,58,U/L
UNSCHEDULED 1,CDISCPILOT01,LB,01-701-1341,1341,1/5/13,2/7/13,1/5/13,1/26/13,NA,2/21/13,NA,NA,701,51,YEARS,M,WHITE,NOT HISPANIC OR LATINO,Xan_Lo,Xanomeline Low Dose,Xan_Lo,Xanomeline Low Dose,USA,12/22/12,-14,40,ALT,Alanine Aminotransfera,CHEMISTRY,43,U/L,6,43,43,43,U/L,6,43,NORMAL,NA,1.1,NA,2012-12-26T11:05,-10,,,,,,,,,,,,,,,,,,,lb,Alanine Aminotransfera,43,U/L
WEEK 2,CDISCPILOT01,LB,01-701-1341,1341,1/5/13,2/7/13,1/5/13,1/26/13,NA,2/21/13,NA,NA,701,51,YEARS,M,WHITE,NOT HISPANIC OR LATINO,Xan_Lo,Xanomeline Low Dose,Xan_Lo,Xanomeline Low Dose,USA,12/22/12,-14,56,ALT,Alanine Aminotransfera,CHEMISTRY,15,U/L,6,43,15,15,U/L,6,43,NORMAL,NA,4,14,2013-01-18T12:00,14,,,,,,,,,,,,,,,,,,,lb,Alanine Aminotransfera,15,U/L
WEEK 4,CDISCPILOT01,LB,01-701-1341,1341,1/5/13,2/7/13,1/5/13,1/26/13,NA,2/21/13,NA,NA,701,51,YEARS,M,WHITE,NOT HISPANIC OR LATINO,Xan_Lo,Xanomeline Low Dose,Xan_Lo,Xanomeline Low Dose,USA,12/22/12,-14,91,ALT,Alanine Aminotransfera,CHEMISTRY,27,U/L,6,43,27,27,U/L,6,43,NORMAL,NA,5,28,2013-02-07T15:16,34,,,,,,,,,,,,,,,,,,,lb,Alanine Aminotransfera,27,U/L
SCREENING 1,CDISCPILOT01,LB,01-701-1345,1345,10/8/13,3/18/14,10/8/13,3/18/14,NA,2014-03-18T14:12,NA,NA,701,63,YEARS,F,WHITE,NOT HISPANIC OR LATINO,Pbo,Placebo,Pbo,Placebo,USA,10/1/13,-7,3,ALT,Alanine Aminotransfera,CHEMISTRY,13,U/L,6,34,13,13,U/L,6,34,NORMAL,Y,1,-7,2013-10-01T12:50,-7,,,,,,,,,,,,,,,,,,,lb,Alanine Aminotransfera,13,U/L
WEEK 2,CDISCPILOT01,LB,01-701-1345,1345,10/8/13,3/18/14,10/8/13,3/18/14,NA,2014-03-18T14:12,NA,NA,701,63,YEARS,F,WHITE,NOT HISPANIC OR LATINO,Pbo,Placebo,Pbo,Placebo,USA,10/1/13,-7,40,ALT,Alanine Aminotransfera,CHEMISTRY,9,U/L,6,34,9,9,U/L,6,34,NORMAL,NA,4,14,2013-10-24T10:41,17,,,,,,,,,,,,,,,,,,,lb,Alanine Aminotransfera,9,U/L
WEEK 4,CDISCPILOT01,LB,01-701-1345,1345,10/8/13,3/18/14,10/8/13,3/18/14,NA,2014-03-18T14:12,NA,NA,701,63,YEARS,F,WHITE,NOT HISPANIC OR LATINO,Pbo,Placebo,Pbo,Placebo,USA,10/1/13,-7,75,ALT,Alanine Aminotransfera,CHEMISTRY,11,U/L,6,34,11,11,U/L,6,34,NORMAL,NA,5,28,2013-11-08T11:32,32,,,,,,,,,,,,,,,,,,,lb,Alanine Aminotransfera,11,U/L
WEEK 6,CDISCPILOT01,LB,01-701-1345,1345,10/8/13,3/18/14,10/8/13,3/18/14,NA,2014-03-18T14:12,NA,NA,701,63,YEARS,F,WHITE,NOT HISPANIC OR LATINO,Pbo,Placebo,Pbo,Placebo,USA,10/1/13,-7,105,ALT,Alanine Aminotransfera,CHEMISTRY,10,U/L,6,34,10,10,U/L,6,34,NORMAL,NA,7,42,2013-11-19T13:22,43,,,,,,,,,,,,,,,,,,,lb,Alanine Aminotransfera,10,U/L
WEEK 8,CDISCPILOT01,LB,01-701-1345,1345,10/8/13,3/18/14,10/8/13,3/18/14,NA,2014-03-18T14:12,NA,NA,701,63,YEARS,F,WHITE,NOT HISPANIC OR LATINO,Pbo,Placebo,Pbo,Placebo,USA,10/1/13,-7,135,ALT,Alanine Aminotransfera,CHEMISTRY,7,U/L,6,34,7,7,U/L,6,34,NORMAL,NA,8,56,2013-12-03T12:27,57,,,,,,,,,,,,,,,,,,,lb,Alanine Aminotransfera,7,U/L
WEEK 12,CDISCPILOT01,LB,01-701-1345,1345,10/8/13,3/18/14,10/8/13,3/18/14,NA,2014-03-18T14:12,NA,NA,701,63,YEARS,F,WHITE,NOT HISPANIC OR LATINO,Pbo,Placebo,Pbo,Placebo,USA,10/1/13,-7,165,ALT,Alanine Aminotransfera,CHEMISTRY,14,U/L,6,34,14,14,U/L,6,34,NORMAL,NA,9,84,2013-12-31T15:07,85,,,,,,,,,,,,,,,,,,,lb,Alanine Aminotransfera,14,U/L
WEEK 16,CDISCPILOT01,LB,01-701-1345,1345,10/8/13,3/18/14,10/8/13,3/18/14,NA,2014-03-18T14:12,NA,NA,701,63,YEARS,F,WHITE,NOT HISPANIC OR LATINO,Pbo,Placebo,Pbo,Placebo,USA,10/1/13,-7,200,ALT,Alanine Aminotransfera,CHEMISTRY,13,U/L,6,34,13,13,U/L,6,34,NORMAL,NA,10,112,2014-01-27T11:49,112,,,,,,,,,,,,,,,,,,,lb,Alanine Aminotransfera,13,U/L
WEEK 20,CDISCPILOT01,LB,01-701-1345,1345,10/8/13,3/18/14,10/8/13,3/18/14,NA,2014-03-18T14:12,NA,NA,701,63,YEARS,F,WHITE,NOT HISPANIC OR LATINO,Pbo,Placebo,Pbo,Placebo,USA,10/1/13,-7,230,ALT,Alanine Aminotransfera,CHEMISTRY,13,U/L,6,34,13,13,U/L,6,34,NORMAL,NA,11,140,2014-02-25T08:44,141,,,,,,,,,,,,,,,,,,,lb,Alanine Aminotransfera,13,U/L
WEEK 24,CDISCPILOT01,LB,01-701-1345,1345,10/8/13,3/18/14,10/8/13,3/18/14,NA,2014-03-18T14:12,NA,NA,701,63,YEARS,F,WHITE,NOT HISPANIC OR LATINO,Pbo,Placebo,Pbo,Placebo,USA,10/1/13,-7,260,ALT,Alanine Aminotransfera,CHEMISTRY,25,U/L,6,34,25,25,U/L,6,34,NORMAL,NA,12,168,2014-03-18T14:12,162,,,,,,,,,,,,,,,,,,,lb,Alanine Aminotransfera,25,U/L
SCREENING 1,CDISCPILOT01,LB,01-701-1360,1360,7/31/13,8/14/13,7/31/13,8/5/13,NA,2/11/14,NA,NA,701,67,YEARS,M,WHITE,NOT HISPANIC OR LATINO,Xan_Hi,Xanomeline High Dose,Xan_Lo,Xanomeline Low Dose,USA,7/24/13,-7,3,ALT,Alanine Aminotransfera,CHEMISTRY,16,U/L,6,43,16,16,U/L,6,43,NORMAL,Y,1,-7,2013-07-24T11:04,-7,,,,,,,,,,,,,,,,,,,lb,Alanine Aminotransfera,16,U/L
WEEK 2,CDISCPILOT01,LB,01-701-1360,1360,7/31/13,8/14/13,7/31/13,8/5/13,NA,2/11/14,NA,NA,701,67,YEARS,M,WHITE,NOT HISPANIC OR LATINO,Xan_Hi,Xanomeline High Dose,Xan_Lo,Xanomeline Low Dose,USA,7/24/13,-7,40,ALT,Alanine Aminotransfera,CHEMISTRY,19,U/L,6,43,19,19,U/L,6,43,NORMAL,NA,4,14,2013-08-14T15:17,15,,,,,,,,,,,,,,,,,,,lb,Alanine Aminotransfera,19,U/L
SCREENING 1,CDISCPILOT01,LB,01-701-1363,1363,5/30/13,11/27/13,5/30/13,11/27/13,NA,2013-11-27T10:00,NA,NA,701,81,YEARS,F,BLACK OR AFRICAN AMERICAN,NOT HISPANIC OR LATINO,Pbo,Placebo,Pbo,Placebo,USA,5/20/13,-10,3,ALT,Alanine Aminotransfera,CHEMISTRY,9,U/L,6,32,9,9,U/L,6,32,NORMAL,Y,1,-7,2013-05-20T13:29,-10,,,,,,,,,,,,,,,,,,,lb,Alanine Aminotransfera,9,U/L
WEEK 2,CDISCPILOT01,LB,01-701-1363,1363,5/30/13,11/27/13,5/30/13,11/27/13,NA,2013-11-27T10:00,NA,NA,701,81,YEARS,F,BLACK OR AFRICAN AMERICAN,NOT HISPANIC OR LATINO,Pbo,Placebo,Pbo,Placebo,USA,5/20/13,-10,40,ALT,Alanine Aminotransfera,CHEMISTRY,11,U/L,6,32,11,11,U/L,6,32,NORMAL,NA,4,14,2013-06-12T09:57,14,,,,,,,,,,,,,,,,,,,lb,Alanine Aminotransfera,11,U/L
WEEK 4,CDISCPILOT01,LB,01-701-1363,1363,5/30/13,11/27/13,5/30/13,11/27/13,NA,2013-11-27T10:00,NA,NA,701,81,YEARS,F,BLACK OR AFRICAN AMERICAN,NOT HISPANIC OR LATINO,Pbo,Placebo,Pbo,Placebo,USA,5/20/13,-10,75,ALT,Alanine Aminotransfera,CHEMISTRY,9,U/L,6,32,9,9,U/L,6,32,NORMAL,NA,5,28,2013-06-25T11:46,27,,,,,,,,,,,,,,,,,,,lb,Alanine Aminotransfera,9,U/L
WEEK 6,CDISCPILOT01,LB,01-701-1363,1363,5/30/13,11/27/13,5/30/13,11/27/13,NA,2013-11-27T10:00,NA,NA,701,81,YEARS,F,BLACK OR AFRICAN AMERICAN,NOT HISPANIC OR LATINO,Pbo,Placebo,Pbo,Placebo,USA,5/20/13,-10,105,ALT,Alanine Aminotransfera,CHEMISTRY,12,U/L,6,32,12,12,U/L,6,32,NORMAL,NA,7,42,2013-07-10T13:38,42,,,,,,,,,,,,,,,,,,,lb,Alanine Aminotransfera,12,U/L
WEEK 8,CDISCPILOT01,LB,01-701-1363,1363,5/30/13,11/27/13,5/30/13,11/27/13,NA,2013-11-27T10:00,NA,NA,701,81,YEARS,F,BLACK OR AFRICAN AMERICAN,NOT HISPANIC OR LATINO,Pbo,Placebo,Pbo,Placebo,USA,5/20/13,-10,135,ALT,Alanine Aminotransfera,CHEMISTRY,11,U/L,6,32,11,11,U/L,6,32,NORMAL,NA,8,56,2013-07-24T10:12,56,,,,,,,,,,,,,,,,,,,lb,Alanine Aminotransfera,11,U/L
WEEK 12,CDISCPILOT01,LB,01-701-1363,1363,5/30/13,11/27/13,5/30/13,11/27/13,NA,2013-11-27T10:00,NA,NA,701,81,YEARS,F,BLACK OR AFRICAN AMERICAN,NOT HISPANIC OR LATINO,Pbo,Placebo,Pbo,Placebo,USA,5/20/13,-10,165,ALT,Alanine Aminotransfera,CHEMISTRY,13,U/L,6,32,13,13,U/L,6,32,NORMAL,NA,9,84,2013-08-21T15:17,84,,,,,,,,,,,,,,,,,,,lb,Alanine Aminotransfera,13,U/L
WEEK 16,CDISCPILOT01,LB,01-701-1363,1363,5/30/13,11/27/13,5/30/13,11/27/13,NA,2013-11-27T10:00,NA,NA,701,81,YEARS,F,BLACK OR AFRICAN AMERICAN,NOT HISPANIC OR LATINO,Pbo,Placebo,Pbo,Placebo,USA,5/20/13,-10,200,ALT,Alanine Aminotransfera,CHEMISTRY,14,U/L,6,32,14,14,U/L,6,32,NORMAL,NA,10,112,2013-09-18T11:30,112,,,,,,,,,,,,,,,,,,,lb,Alanine Aminotransfera,14,U/L
WEEK 20,CDISCPILOT01,LB,01-701-1363,1363,5/30/13,11/27/13,5/30/13,11/27/13,NA,2013-11-27T10:00,NA,NA,701,81,YEARS,F,BLACK OR AFRICAN AMERICAN,NOT HISPANIC OR LATINO,Pbo,Placebo,Pbo,Placebo,USA,5/20/13,-10,230,ALT,Alanine Aminotransfera,CHEMISTRY,14,U/L,6,32,14,14,U/L,6,32,NORMAL,NA,11,140,2013-10-14T08:22,138,,,,,,,,,,,,,,,,,,,lb,Alanine Aminotransfera,14,U/L
WEEK 24,CDISCPILOT01,LB,01-701-1363,1363,5/30/13,11/27/13,5/30/13,11/27/13,NA,2013-11-27T10:00,NA,NA,701,81,YEARS,F,BLACK OR AFRICAN AMERICAN,NOT HISPANIC OR LATINO,Pbo,Placebo,Pbo,Placebo,USA,5/20/13,-10,260,ALT,Alanine Aminotransfera,CHEMISTRY,8,U/L,6,32,8,8,U/L,6,32,NORMAL,NA,12,168,2013-11-13T11:55,168,,,,,,,,,,,,,,,,,,,lb,Alanine Aminotransfera,8,U/L
WEEK 26,CDISCPILOT01,LB,01-701-1363,1363,5/30/13,11/27/13,5/30/13,11/27/13,NA,2013-11-27T10:00,NA,NA,701,81,YEARS,F,BLACK OR AFRICAN AMERICAN,NOT HISPANIC OR LATINO,Pbo,Placebo,Pbo,Placebo,USA,5/20/13,-10,295,ALT,Alanine Aminotransfera,CHEMISTRY,11,U/L,6,32,11,11,U/L,6,32,NORMAL,NA,13,182,2013-11-27T10:00,182,,,,,,,,,,,,,,,,,,,lb,Alanine Aminotransfera,11,U/L
SCREENING 1,CDISCPILOT01,LB,01-701-1383,1383,2/4/13,8/6/13,2/4/13,8/6/13,NA,2013-08-06T12:00,NA,NA,701,72,YEARS,F,WHITE,NOT HISPANIC OR LATINO,Xan_Hi,Xanomeline High Dose,Xan_Hi,Xanomeline High Dose,USA,1/22/13,-13,3,ALT,Alanine Aminotransfera,CHEMISTRY,17,U/L,6,32,17,17,U/L,6,32,NORMAL,Y,1,-7,2013-01-22T11:43,-13,,,,,,,,,,,,,,,,,,,lb,Alanine Aminotransfera,17,U/L
WEEK 2,CDISCPILOT01,LB,01-701-1383,1383,2/4/13,8/6/13,2/4/13,8/6/13,NA,2013-08-06T12:00,NA,NA,701,72,YEARS,F,WHITE,NOT HISPANIC OR LATINO,Xan_Hi,Xanomeline High Dose,Xan_Hi,Xanomeline High Dose,USA,1/22/13,-13,40,ALT,Alanine Aminotransfera,CHEMISTRY,17,U/L,6,32,17,17,U/L,6,32,NORMAL,NA,4,14,2013-02-19T09:40,16,,,,,,,,,,,,,,,,,,,lb,Alanine Aminotransfera,17,U/L
WEEK 4,CDISCPILOT01,LB,01-701-1383,1383,2/4/13,8/6/13,2/4/13,8/6/13,NA,2013-08-06T12:00,NA,NA,701,72,YEARS,F,WHITE,NOT HISPANIC OR LATINO,Xan_Hi,Xanomeline High Dose,Xan_Hi,Xanomeline High Dose,USA,1/22/13,-13,75,ALT,Alanine Aminotransfera,CHEMISTRY,14,U/L,6,32,14,14,U/L,6,32,NORMAL,NA,5,28,2013-03-12T11:50,37,,,,,,,,,,,,,,,,,,,lb,Alanine Aminotransfera,14,U/L
WEEK 6,CDISCPILOT01,LB,01-701-1383,1383,2/4/13,8/6/13,2/4/13,8/6/13,NA,2013-08-06T12:00,NA,NA,701,72,YEARS,F,WHITE,NOT HISPANIC OR LATINO,Xan_Hi,Xanomeline High Dose,Xan_Hi,Xanomeline High Dose,USA,1/22/13,-13,105,ALT,Alanine Aminotransfera,CHEMISTRY,17,U/L,6,32,17,17,U/L,6,32,NORMAL,NA,7,42,2013-03-19T08:57,44,,,,,,,,,,,,,,,,,,,lb,Alanine Aminotransfera,17,U/L
WEEK 8,CDISCPILOT01,LB,01-701-1383,1383,2/4/13,8/6/13,2/4/13,8/6/13,NA,2013-08-06T12:00,NA,NA,701,72,YEARS,F,WHITE,NOT HISPANIC OR LATINO,Xan_Hi,Xanomeline High Dose,Xan_Hi,Xanomeline High Dose,USA,1/22/13,-13,135,ALT,Alanine Aminotransfera,CHEMISTRY,18,U/L,6,32,18,18,U/L,6,32,NORMAL,NA,8,56,2013-04-02T10:32,58,,,,,,,,,,,,,,,,,,,lb,Alanine Aminotransfera,18,U/L
WEEK 12,CDISCPILOT01,LB,01-701-1383,1383,2/4/13,8/6/13,2/4/13,8/6/13,NA,2013-08-06T12:00,NA,NA,701,72,YEARS,F,WHITE,NOT HISPANIC OR LATINO,Xan_Hi,Xanomeline High Dose,Xan_Hi,Xanomeline High Dose,USA,1/22/13,-13,165,ALT,Alanine Aminotransfera,CHEMISTRY,13,U/L,6,32,13,13,U/L,6,32,NORMAL,NA,9,84,2013-04-30T13:14,86,,,,,,,,,,,,,,,,,,,lb,Alanine Aminotransfera,13,U/L
WEEK 16,CDISCPILOT01,LB,01-701-1383,1383,2/4/13,8/6/13,2/4/13,8/6/13,NA,2013-08-06T12:00,NA,NA,701,72,YEARS,F,WHITE,NOT HISPANIC OR LATINO,Xan_Hi,Xanomeline High Dose,Xan_Hi,Xanomeline High Dose,USA,1/22/13,-13,200,ALT,Alanine Aminotransfera,CHEMISTRY,19,U/L,6,32,19,19,U/L,6,32,NORMAL,NA,10,112,2013-05-30T10:33,116,,,,,,,,,,,,,,,,,,,lb,Alanine Aminotransfera,19,U/L
WEEK 20,CDISCPILOT01,LB,01-701-1383,1383,2/4/13,8/6/13,2/4/13,8/6/13,NA,2013-08-06T12:00,NA,NA,701,72,YEARS,F,WHITE,NOT HISPANIC OR LATINO,Xan_Hi,Xanomeline High Dose,Xan_Hi,Xanomeline High Dose,USA,1/22/13,-13,230,ALT,Alanine Aminotransfera,CHEMISTRY,19,U/L,6,32,19,19,U/L,6,32,NORMAL,NA,11,140,2013-06-25T15:07,142,,,,,,,,,,,,,,,,,,,lb,Alanine Aminotransfera,19,U/L
WEEK 24,CDISCPILOT01,LB,01-701-1383,1383,2/4/13,8/6/13,2/4/13,8/6/13,NA,2013-08-06T12:00,NA,NA,701,72,YEARS,F,WHITE,NOT HISPANIC OR LATINO,Xan_Hi,Xanomeline High Dose,Xan_Hi,Xanomeline High Dose,USA,1/22/13,-13,260,ALT,Alanine Aminotransfera,CHEMISTRY,15,U/L,6,32,15,15,U/L,6,32,NORMAL,NA,12,168,2013-07-30T12:32,177,,,,,,,,,,,,,,,,,,,lb,Alanine Aminotransfera,15,U/L
WEEK 26,CDISCPILOT01,LB,01-701-1383,1383,2/4/13,8/6/13,2/4/13,8/6/13,NA,2013-08-06T12:00,NA,NA,701,72,YEARS,F,WHITE,NOT HISPANIC OR LATINO,Xan_Hi,Xanomeline High Dose,Xan_Hi,Xanomeline High Dose,USA,1/22/13,-13,295,ALT,Alanine Aminotransfera,CHEMISTRY,14,U/L,6,32,14,14,U/L,6,32,NORMAL,NA,13,182,2013-08-06T12:00,184,,,,,,,,,,,,,,,,,,,lb,Alanine Aminotransfera,14,U/L
SCREENING 1,CDISCPILOT01,LB,01-701-1387,1387,3/12/14,3/25/14,3/12/14,3/25/14,NA,8/27/14,NA,NA,701,87,YEARS,F,WHITE,NOT HISPANIC OR LATINO,Pbo,Placebo,Pbo,Placebo,USA,2/23/14,-17,3,ALT,Alanine Aminotransfera,CHEMISTRY,12,U/L,6,32,12,12,U/L,6,32,NORMAL,Y,1,-7,2014-02-23T13:20,-17,,,,,,,,,,,,,,,,,,,lb,Alanine Aminotransfera,12,U/L
WEEK 2,CDISCPILOT01,LB,01-701-1387,1387,3/12/14,3/25/14,3/12/14,3/25/14,NA,8/27/14,NA,NA,701,87,YEARS,F,WHITE,NOT HISPANIC OR LATINO,Pbo,Placebo,Pbo,Placebo,USA,2/23/14,-17,40,ALT,Alanine Aminotransfera,CHEMISTRY,12,U/L,6,32,12,12,U/L,6,32,NORMAL,NA,4,14,2014-03-25T10:40,14,,,,,,,,,,,,,,,,,,,lb,Alanine Aminotransfera,12,U/L
SCREENING 1,CDISCPILOT01,LB,01-701-1392,1392,10/28/12,4/28/13,10/28/12,4/28/13,NA,2013-04-28T11:30,NA,NA,701,78,YEARS,M,WHITE,NOT HISPANIC OR LATINO,Pbo,Placebo,Pbo,Placebo,USA,10/17/12,-11,3,ALT,Alanine Aminotransfera,CHEMISTRY,23,U/L,6,35,23,23,U/L,6,35,NORMAL,Y,1,-7,2012-10-17T12:13,-11,,,,,,,,,,,,,,,,,,,lb,Alanine Aminotransfera,23,U/L
WEEK 2,CDISCPILOT01,LB,01-701-1392,1392,10/28/12,4/28/13,10/28/12,4/28/13,NA,2013-04-28T11:30,NA,NA,701,78,YEARS,M,WHITE,NOT HISPANIC OR LATINO,Pbo,Placebo,Pbo,Placebo,USA,10/17/12,-11,40,ALT,Alanine Aminotransfera,CHEMISTRY,20,U/L,6,35,20,20,U/L,6,35,NORMAL,NA,4,14,2012-11-11T15:35,15,,,,,,,,,,,,,,,,,,,lb,Alanine Aminotransfera,20,U/L
WEEK 4,CDISCPILOT01,LB,01-701-1392,1392,10/28/12,4/28/13,10/28/12,4/28/13,NA,2013-04-28T11:30,NA,NA,701,78,YEARS,M,WHITE,NOT HISPANIC OR LATINO,Pbo,Placebo,Pbo,Placebo,USA,10/17/12,-11,75,ALT,Alanine Aminotransfera,CHEMISTRY,20,U/L,6,35,20,20,U/L,6,35,NORMAL,NA,5,28,2012-11-24T08:59,28,,,,,,,,,,,,,,,,,,,lb,Alanine Aminotransfera,20,U/L
WEEK 6,CDISCPILOT01,LB,01-701-1392,1392,10/28/12,4/28/13,10/28/12,4/28/13,NA,2013-04-28T11:30,NA,NA,701,78,YEARS,M,WHITE,NOT HISPANIC OR LATINO,Pbo,Placebo,Pbo,Placebo,USA,10/17/12,-11,105,ALT,Alanine Aminotransfera,CHEMISTRY,21,U/L,6,35,21,21,U/L,6,35,NORMAL,NA,7,42,2012-12-09T09:26,43,,,,,,,,,,,,,,,,,,,lb,Alanine Aminotransfera,21,U/L
WEEK 8,CDISCPILOT01,LB,01-701-1392,1392,10/28/12,4/28/13,10/28/12,4/28/13,NA,2013-04-28T11:30,NA,NA,701,78,YEARS,M,WHITE,NOT HISPANIC OR LATINO,Pbo,Placebo,Pbo,Placebo,USA,10/17/12,-11,135,ALT,Alanine Aminotransfera,CHEMISTRY,22,U/L,6,35,22,22,U/L,6,35,NORMAL,NA,8,56,2012-12-20T10:51,54,,,,,,,,,,,,,,,,,,,lb,Alanine Aminotransfera,22,U/L
WEEK 12,CDISCPILOT01,LB,01-701-1392,1392,10/28/12,4/28/13,10/28/12,4/28/13,NA,2013-04-28T11:30,NA,NA,701,78,YEARS,M,WHITE,NOT HISPANIC OR LATINO,Pbo,Placebo,Pbo,Placebo,USA,10/17/12,-11,165,ALT,Alanine Aminotransfera,CHEMISTRY,21,U/L,6,35,21,21,U/L,6,35,NORMAL,NA,9,84,2013-01-20T14:39,85,,,,,,,,,,,,,,,,,,,lb,Alanine Aminotransfera,21,U/L
WEEK 16,CDISCPILOT01,LB,01-701-1392,1392,10/28/12,4/28/13,10/28/12,4/28/13,NA,2013-04-28T11:30,NA,NA,701,78,YEARS,M,WHITE,NOT HISPANIC OR LATINO,Pbo,Placebo,Pbo,Placebo,USA,10/17/12,-11,200,ALT,Alanine Aminotransfera,CHEMISTRY,18,U/L,6,35,18,18,U/L,6,35,NORMAL,NA,10,112,2013-02-17T11:30,113,,,,,,,,,,,,,,,,,,,lb,Alanine Aminotransfera,18,U/L
WEEK 20,CDISCPILOT01,LB,01-701-1392,1392,10/28/12,4/28/13,10/28/12,4/28/13,NA,2013-04-28T11:30,NA,NA,701,78,YEARS,M,WHITE,NOT HISPANIC OR LATINO,Pbo,Placebo,Pbo,Placebo,USA,10/17/12,-11,230,ALT,Alanine Aminotransfera,CHEMISTRY,14,U/L,6,35,14,14,U/L,6,35,NORMAL,NA,11,140,2013-03-17T11:35,141,,,,,,,,,,,,,,,,,,,lb,Alanine Aminotransfera,14,U/L
WEEK 24,CDISCPILOT01,LB,01-701-1392,1392,10/28/12,4/28/13,10/28/12,4/28/13,NA,2013-04-28T11:30,NA,NA,701,78,YEARS,M,WHITE,NOT HISPANIC OR LATINO,Pbo,Placebo,Pbo,Placebo,USA,10/17/12,-11,260,ALT,Alanine Aminotransfera,CHEMISTRY,13,U/L,6,35,13,13,U/L,6,35,NORMAL,NA,12,168,2013-04-15T10:53,170,,,,,,,,,,,,,,,,,,,lb,Alanine Aminotransfera,13,U/L
WEEK 26,CDISCPILOT01,LB,01-701-1392,1392,10/28/12,4/28/13,10/28/12,4/28/13,NA,2013-04-28T11:30,NA,NA,701,78,YEARS,M,WHITE,NOT HISPANIC OR LATINO,Pbo,Placebo,Pbo,Placebo,USA,10/17/12,-11,295,ALT,Alanine Aminotransfera,CHEMISTRY,17,U/L,6,35,17,17,U/L,6,35,NORMAL,NA,13,182,2013-04-28T11:30,183,,,,,,,,,,,,,,,,,,,lb,Alanine Aminotransfera,17,U/L
SCREENING 1,CDISCPILOT01,LB,01-701-1415,1415,9/23/13,3/24/14,9/23/13,3/24/14,NA,2014-03-24T12:34,NA,NA,701,85,YEARS,M,WHITE,NOT HISPANIC OR LATINO,Pbo,Placebo,Pbo,Placebo,USA,9/15/13,-8,3,ALT,Alanine Aminotransfera,CHEMISTRY,13,U/L,6,35,13,13,U/L,6,35,NORMAL,Y,1,-7,2013-09-15T14:05,-8,,,,,,,,,,,,,,,,,,,lb,Alanine Aminotransfera,13,U/L
WEEK 2,CDISCPILOT01,LB,01-701-1415,1415,9/23/13,3/24/14,9/23/13,3/24/14,NA,2014-03-24T12:34,NA,NA,701,85,YEARS,M,WHITE,NOT HISPANIC OR LATINO,Pbo,Placebo,Pbo,Placebo,USA,9/15/13,-8,45,ALT,Alanine Aminotransfera,CHEMISTRY,16,U/L,6,35,16,16,U/L,6,35,NORMAL,NA,4,14,2013-10-07T12:25,15,,,,,,,,,,,,,,,,,,,lb,Alanine Aminotransfera,16,U/L
WEEK 4,CDISCPILOT01,LB,01-701-1415,1415,9/23/13,3/24/14,9/23/13,3/24/14,NA,2014-03-24T12:34,NA,NA,701,85,YEARS,M,WHITE,NOT HISPANIC OR LATINO,Pbo,Placebo,Pbo,Placebo,USA,9/15/13,-8,80,ALT,Alanine Aminotransfera,CHEMISTRY,14,U/L,6,35,14,14,U/L,6,35,NORMAL,NA,5,28,2013-10-20T13:25,28,,,,,,,,,,,,,,,,,,,lb,Alanine Aminotransfera,14,U/L
WEEK 6,CDISCPILOT01,LB,01-701-1415,1415,9/23/13,3/24/14,9/23/13,3/24/14,NA,2014-03-24T12:34,NA,NA,701,85,YEARS,M,WHITE,NOT HISPANIC OR LATINO,Pbo,Placebo,Pbo,Placebo,USA,9/15/13,-8,112,ALT,Alanine Aminotransfera,CHEMISTRY,14,U/L,6,35,14,14,U/L,6,35,NORMAL,NA,7,42,2013-11-04T10:49,43,,,,,,,,,,,,,,,,,,,lb,Alanine Aminotransfera,14,U/L
WEEK 8,CDISCPILOT01,LB,01-701-1415,1415,9/23/13,3/24/14,9/23/13,3/24/14,NA,2014-03-24T12:34,NA,NA,701,85,YEARS,M,WHITE,NOT HISPANIC OR LATINO,Pbo,Placebo,Pbo,Placebo,USA,9/15/13,-8,142,ALT,Alanine Aminotransfera,CHEMISTRY,16,U/L,6,35,16,16,U/L,6,35,NORMAL,NA,8,56,2013-11-21T10:59,60,,,,,,,,,,,,,,,,,,,lb,Alanine Aminotransfera,16,U/L
WEEK 12,CDISCPILOT01,LB,01-701-1415,1415,9/23/13,3/24/14,9/23/13,3/24/14,NA,2014-03-24T12:34,NA,NA,701,85,YEARS,M,WHITE,NOT HISPANIC OR LATINO,Pbo,Placebo,Pbo,Placebo,USA,9/15/13,-8,172,ALT,Alanine Aminotransfera,CHEMISTRY,12,U/L,6,35,12,12,U/L,6,35,NORMAL,NA,9,84,2013-12-21T15:25,90,,,,,,,,,,,,,,,,,,,lb,Alanine Aminotransfera,12,U/L
WEEK 16,CDISCPILOT01,LB,01-701-1415,1415,9/23/13,3/24/14,9/23/13,3/24/14,NA,2014-03-24T12:34,NA,NA,701,85,YEARS,M,WHITE,NOT HISPANIC OR LATINO,Pbo,Placebo,Pbo,Placebo,USA,9/15/13,-8,206,ALT,Alanine Aminotransfera,CHEMISTRY,10,U/L,6,35,10,10,U/L,6,35,NORMAL,NA,10,112,2014-01-14T14:50,114,,,,,,,,,,,,,,,,,,,lb,Alanine Aminotransfera,10,U/L
WEEK 20,CDISCPILOT01,LB,01-701-1415,1415,9/23/13,3/24/14,9/23/13,3/24/14,NA,2014-03-24T12:34,NA,NA,701,85,YEARS,M,WHITE,NOT HISPANIC OR LATINO,Pbo,Placebo,Pbo,Placebo,USA,9/15/13,-8,236,ALT,Alanine Aminotransfera,CHEMISTRY,14,U/L,6,35,14,14,U/L,6,35,NORMAL,NA,11,140,2014-02-10T08:35,141,,,,,,,,,,,,,,,,,,,lb,Alanine Aminotransfera,14,U/L
WEEK 24,CDISCPILOT01,LB,01-701-1415,1415,9/23/13,3/24/14,9/23/13,3/24/14,NA,2014-03-24T12:34,NA,NA,701,85,YEARS,M,WHITE,NOT HISPANIC OR LATINO,Pbo,Placebo,Pbo,Placebo,USA,9/15/13,-8,266,ALT,Alanine Aminotransfera,CHEMISTRY,14,U/L,6,35,14,14,U/L,6,35,NORMAL,NA,12,168,2014-03-10T12:30,169,,,,,,,,,,,,,,,,,,,lb,Alanine Aminotransfera,14,U/L
WEEK 26,CDISCPILOT01,LB,01-701-1415,1415,9/23/13,3/24/14,9/23/13,3/24/14,NA,2014-03-24T12:34,NA,NA,701,85,YEARS,M,WHITE,NOT HISPANIC OR LATINO,Pbo,Placebo,Pbo,Placebo,USA,9/15/13,-8,301,ALT,Alanine Aminotransfera,CHEMISTRY,13,U/L,6,35,13,13,U/L,6,35,NORMAL,NA,13,182,2014-03-24T12:34,183,,,,,,,,,,,,,,,,,,,lb,Alanine Aminotransfera,13,U/L
SCREENING 1,CDISCPILOT01,LB,01-701-1429,1429,3/19/13,4/30/13,3/19/13,4/30/13,NA,2013-04-30T12:22,NA,NA,701,84,YEARS,F,WHITE,NOT HISPANIC OR LATINO,Xan_Lo,Xanomeline Low Dose,Xan_Lo,Xanomeline Low Dose,USA,2/25/13,-22,3,ALT,Alanine Aminotransfera,CHEMISTRY,28,U/L,6,32,28,28,U/L,6,32,NORMAL,Y,1,-7,2013-02-21T16:20,-26,,,,,,,,,,,,,,,,,,,lb,Alanine Aminotransfera,28,U/L
WEEK 2,CDISCPILOT01,LB,01-701-1429,1429,3/19/13,4/30/13,3/19/13,4/30/13,NA,2013-04-30T12:22,NA,NA,701,84,YEARS,F,WHITE,NOT HISPANIC OR LATINO,Xan_Lo,Xanomeline Low Dose,Xan_Lo,Xanomeline Low Dose,USA,2/25/13,-22,40,ALT,Alanine Aminotransfera,CHEMISTRY,20,U/L,6,32,20,20,U/L,6,32,NORMAL,NA,4,14,2013-04-02T12:41,15,,,,,,,,,,,,,,,,,,,lb,Alanine Aminotransfera,20,U/L
WEEK 4,CDISCPILOT01,LB,01-701-1429,1429,3/19/13,4/30/13,3/19/13,4/30/13,NA,2013-04-30T12:22,NA,NA,701,84,YEARS,F,WHITE,NOT HISPANIC OR LATINO,Xan_Lo,Xanomeline Low Dose,Xan_Lo,Xanomeline Low Dose,USA,2/25/13,-22,75,ALT,Alanine Aminotransfera,CHEMISTRY,16,U/L,6,32,16,16,U/L,6,32,NORMAL,NA,5,28,2013-04-16T13:10,29,,,,,,,,,,,,,,,,,,,lb,Alanine Aminotransfera,16,U/L
WEEK 6,CDISCPILOT01,LB,01-701-1429,1429,3/19/13,4/30/13,3/19/13,4/30/13,NA,2013-04-30T12:22,NA,NA,701,84,YEARS,F,WHITE,NOT HISPANIC OR LATINO,Xan_Lo,Xanomeline Low Dose,Xan_Lo,Xanomeline Low Dose,USA,2/25/13,-22,105,ALT,Alanine Aminotransfera,CHEMISTRY,18,U/L,6,32,18,18,U/L,6,32,NORMAL,NA,7,42,2013-04-30T12:22,43,,,,,,,,,,,,,,,,,,,lb,Alanine Aminotransfera,18,U/L
SCREENING 1,CDISCPILOT01,LB,01-701-1440,1440,8/8/13,2/5/14,8/8/13,2/5/14,NA,2014-02-05T11:25,NA,NA,701,70,YEARS,M,WHITE,NOT HISPANIC OR LATINO,Pbo,Placebo,Pbo,Placebo,USA,7/24/13,-15,3,ALT,Alanine Aminotransfera,CHEMISTRY,21,U/L,6,35,21,21,U/L,6,35,NORMAL,Y,1,-7,2013-07-24T12:09,-15,,,,,,,,,,,,,,,,,,,lb,Alanine Aminotransfera,21,U/L
WEEK 2,CDISCPILOT01,LB,01-701-1440,1440,8/8/13,2/5/14,8/8/13,2/5/14,NA,2014-02-05T11:25,NA,NA,701,70,YEARS,M,WHITE,NOT HISPANIC OR LATINO,Pbo,Placebo,Pbo,Placebo,USA,7/24/13,-15,40,ALT,Alanine Aminotransfera,CHEMISTRY,18,U/L,6,35,18,18,U/L,6,35,NORMAL,NA,4,14,2013-08-23T09:40,16,,,,,,,,,,,,,,,,,,,lb,Alanine Aminotransfera,18,U/L
WEEK 4,CDISCPILOT01,LB,01-701-1440,1440,8/8/13,2/5/14,8/8/13,2/5/14,NA,2014-02-05T11:25,NA,NA,701,70,YEARS,M,WHITE,NOT HISPANIC OR LATINO,Pbo,Placebo,Pbo,Placebo,USA,7/24/13,-15,75,ALT,Alanine Aminotransfera,CHEMISTRY,18,U/L,6,35,18,18,U/L,6,35,NORMAL,NA,5,28,2013-09-04T13:40,28,,,,,,,,,,,,,,,,,,,lb,Alanine Aminotransfera,18,U/L
WEEK 6,CDISCPILOT01,LB,01-701-1440,1440,8/8/13,2/5/14,8/8/13,2/5/14,NA,2014-02-05T11:25,NA,NA,701,70,YEARS,M,WHITE,NOT HISPANIC OR LATINO,Pbo,Placebo,Pbo,Placebo,USA,7/24/13,-15,105,ALT,Alanine Aminotransfera,CHEMISTRY,26,U/L,6,35,26,26,U/L,6,35,NORMAL,NA,7,42,2013-09-22T08:50,46,,,,,,,,,,,,,,,,,,,lb,Alanine Aminotransfera,26,U/L
WEEK 8,CDISCPILOT01,LB,01-701-1440,1440,8/8/13,2/5/14,8/8/13,2/5/14,NA,2014-02-05T11:25,NA,NA,701,70,YEARS,M,WHITE,NOT HISPANIC OR LATINO,Pbo,Placebo,Pbo,Placebo,USA,7/24/13,-15,135,ALT,Alanine Aminotransfera,CHEMISTRY,20,U/L,6,35,20,20,U/L,6,35,NORMAL,NA,8,56,2013-10-03T09:47,57,,,,,,,,,,,,,,,,,,,lb,Alanine Aminotransfera,20,U/L
WEEK 12,CDISCPILOT01,LB,01-701-1440,1440,8/8/13,2/5/14,8/8/13,2/5/14,NA,2014-02-05T11:25,NA,NA,701,70,YEARS,M,WHITE,NOT HISPANIC OR LATINO,Pbo,Placebo,Pbo,Placebo,USA,7/24/13,-15,165,ALT,Alanine Aminotransfera,CHEMISTRY,12,U/L,6,35,12,12,U/L,6,35,NORMAL,NA,9,84,2013-10-31T11:50,85,,,,,,,,,,,,,,,,,,,lb,Alanine Aminotransfera,12,U/L
WEEK 16,CDISCPILOT01,LB,01-701-1440,1440,8/8/13,2/5/14,8/8/13,2/5/14,NA,2014-02-05T11:25,NA,NA,701,70,YEARS,M,WHITE,NOT HISPANIC OR LATINO,Pbo,Placebo,Pbo,Placebo,USA,7/24/13,-15,200,ALT,Alanine Aminotransfera,CHEMISTRY,22,U/L,6,35,22,22,U/L,6,35,NORMAL,NA,10,112,2013-11-27T09:34,112,,,,,,,,,,,,,,,,,,,lb,Alanine Aminotransfera,22,U/L
WEEK 20,CDISCPILOT01,LB,01-701-1440,1440,8/8/13,2/5/14,8/8/13,2/5/14,NA,2014-02-05T11:25,NA,NA,701,70,YEARS,M,WHITE,NOT HISPANIC OR LATINO,Pbo,Placebo,Pbo,Placebo,USA,7/24/13,-15,230,ALT,Alanine Aminotransfera,CHEMISTRY,17,U/L,6,35,17,17,U/L,6,35,NORMAL,NA,11,140,2013-12-25T15:06,140,,,,,,,,,,,,,,,,,,,lb,Alanine Aminotransfera,17,U/L
WEEK 24,CDISCPILOT01,LB,01-701-1440,1440,8/8/13,2/5/14,8/8/13,2/5/14,NA,2014-02-05T11:25,NA,NA,701,70,YEARS,M,WHITE,NOT HISPANIC OR LATINO,Pbo,Placebo,Pbo,Placebo,USA,7/24/13,-15,260,ALT,Alanine Aminotransfera,CHEMISTRY,18,U/L,6,35,18,18,U/L,6,35,NORMAL,NA,12,168,2014-01-22T12:32,168,,,,,,,,,,,,,,,,,,,lb,Alanine Aminotransfera,18,U/L
WEEK 26,CDISCPILOT01,LB,01-701-1440,1440,8/8/13,2/5/14,8/8/13,2/5/14,NA,2014-02-05T11:25,NA,NA,701,70,YEARS,M,WHITE,NOT HISPANIC OR LATINO,Pbo,Placebo,Pbo,Placebo,USA,7/24/13,-15,295,ALT,Alanine Aminotransfera,CHEMISTRY,17,U/L,6,35,17,17,U/L,6,35,NORMAL,NA,13,182,2014-02-05T11:25,182,,,,,,,,,,,,,,,,,,,lb,Alanine Aminotransfera,17,U/L
SCREENING 1,CDISCPILOT01,LB,01-701-1442,1442,10/26/13,4/26/14,10/26/13,4/26/14,NA,2014-04-26T10:00,NA,NA,701,57,YEARS,F,BLACK OR AFRICAN AMERICAN,NOT HISPANIC OR LATINO,Xan_Lo,Xanomeline Low Dose,Xan_Lo,Xanomeline Low Dose,USA,10/17/13,-9,3,ALT,Alanine Aminotransfera,CHEMISTRY,23,U/L,6,34,23,23,U/L,6,34,NORMAL,Y,1,-7,2013-10-17T11:49,-9,,,,,,,,,,,,,,,,,,,lb,Alanine Aminotransfera,23,U/L
WEEK 2,CDISCPILOT01,LB,01-701-1442,1442,10/26/13,4/26/14,10/26/13,4/26/14,NA,2014-04-26T10:00,NA,NA,701,57,YEARS,F,BLACK OR AFRICAN AMERICAN,NOT HISPANIC OR LATINO,Xan_Lo,Xanomeline Low Dose,Xan_Lo,Xanomeline Low Dose,USA,10/17/13,-9,40,ALT,Alanine Aminotransfera,CHEMISTRY,20,U/L,6,34,20,20,U/L,6,34,NORMAL,NA,4,14,2013-11-09T09:50,15,,,,,,,,,,,,,,,,,,,lb,Alanine Aminotransfera,20,U/L
WEEK 4,CDISCPILOT01,LB,01-701-1442,1442,10/26/13,4/26/14,10/26/13,4/26/14,NA,2014-04-26T10:00,NA,NA,701,57,YEARS,F,BLACK OR AFRICAN AMERICAN,NOT HISPANIC OR LATINO,Xan_Lo,Xanomeline Low Dose,Xan_Lo,Xanomeline Low Dose,USA,10/17/13,-9,75,ALT,Alanine Aminotransfera,CHEMISTRY,18,U/L,6,34,18,18,U/L,6,34,NORMAL,NA,5,28,2013-11-23T11:39,29,,,,,,,,,,,,,,,,,,,lb,Alanine Aminotransfera,18,U/L
WEEK 6,CDISCPILOT01,LB,01-701-1442,1442,10/26/13,4/26/14,10/26/13,4/26/14,NA,2014-04-26T10:00,NA,NA,701,57,YEARS,F,BLACK OR AFRICAN AMERICAN,NOT HISPANIC OR LATINO,Xan_Lo,Xanomeline Low Dose,Xan_Lo,Xanomeline Low Dose,USA,10/17/13,-9,105,ALT,Alanine Aminotransfera,CHEMISTRY,23,U/L,6,34,23,23,U/L,6,34,NORMAL,NA,7,42,2013-12-07T13:25,43,,,,,,,,,,,,,,,,,,,lb,Alanine Aminotransfera,23,U/L
WEEK 8,CDISCPILOT01,LB,01-701-1442,1442,10/26/13,4/26/14,10/26/13,4/26/14,NA,2014-04-26T10:00,NA,NA,701,57,YEARS,F,BLACK OR AFRICAN AMERICAN,NOT HISPANIC OR LATINO,Xan_Lo,Xanomeline Low Dose,Xan_Lo,Xanomeline Low Dose,USA,10/17/13,-9,135,ALT,Alanine Aminotransfera,CHEMISTRY,19,U/L,6,34,19,19,U/L,6,34,NORMAL,NA,8,56,2013-12-26T09:54,62,,,,,,,,,,,,,,,,,,,lb,Alanine Aminotransfera,19,U/L
WEEK 12,CDISCPILOT01,LB,01-701-1442,1442,10/26/13,4/26/14,10/26/13,4/26/14,NA,2014-04-26T10:00,NA,NA,701,57,YEARS,F,BLACK OR AFRICAN AMERICAN,NOT HISPANIC OR LATINO,Xan_Lo,Xanomeline Low Dose,Xan_Lo,Xanomeline Low Dose,USA,10/17/13,-9,165,ALT,Alanine Aminotransfera,CHEMISTRY,29,U/L,6,34,29,29,U/L,6,34,NORMAL,NA,9,84,2014-01-18T08:37,85,,,,,,,,,,,,,,,,,,,lb,Alanine Aminotransfera,29,U/L
WEEK 16,CDISCPILOT01,LB,01-701-1442,1442,10/26/13,4/26/14,10/26/13,4/26/14,NA,2014-04-26T10:00,NA,NA,701,57,YEARS,F,BLACK OR AFRICAN AMERICAN,NOT HISPANIC OR LATINO,Xan_Lo,Xanomeline Low Dose,Xan_Lo,Xanomeline Low Dose,USA,10/17/13,-9,200,ALT,Alanine Aminotransfera,CHEMISTRY,16,U/L,6,34,16,16,U/L,6,34,NORMAL,NA,10,112,2014-02-15T08:52,113,,,,,,,,,,,,,,,,,,,lb,Alanine Aminotransfera,16,U/L
WEEK 20,CDISCPILOT01,LB,01-701-1442,1442,10/26/13,4/26/14,10/26/13,4/26/14,NA,2014-04-26T10:00,NA,NA,701,57,YEARS,F,BLACK OR AFRICAN AMERICAN,NOT HISPANIC OR LATINO,Xan_Lo,Xanomeline Low Dose,Xan_Lo,Xanomeline Low Dose,USA,10/17/13,-9,230,ALT,Alanine Aminotransfera,CHEMISTRY,30,U/L,6,34,30,30,U/L,6,34,NORMAL,NA,11,140,2014-03-15T16:45,141,,,,,,,,,,,,,,,,,,,lb,Alanine Aminotransfera,30,U/L
WEEK 24,CDISCPILOT01,LB,01-701-1442,1442,10/26/13,4/26/14,10/26/13,4/26/14,NA,2014-04-26T10:00,NA,NA,701,57,YEARS,F,BLACK OR AFRICAN AMERICAN,NOT HISPANIC OR LATINO,Xan_Lo,Xanomeline Low Dose,Xan_Lo,Xanomeline Low Dose,USA,10/17/13,-9,260,ALT,Alanine Aminotransfera,CHEMISTRY,33,U/L,6,34,33,33,U/L,6,34,NORMAL,NA,12,168,2014-04-17T15:14,174,,,,,,,,,,,,,,,,,,,lb,Alanine Aminotransfera,33,U/L
WEEK 26,CDISCPILOT01,LB,01-701-1442,1442,10/26/13,4/26/14,10/26/13,4/26/14,NA,2014-04-26T10:00,NA,NA,701,57,YEARS,F,BLACK OR AFRICAN AMERICAN,NOT HISPANIC OR LATINO,Xan_Lo,Xanomeline Low Dose,Xan_Lo,Xanomeline Low Dose,USA,10/17/13,-9,295,ALT,Alanine Aminotransfera,CHEMISTRY,33,U/L,6,34,33,33,U/L,6,34,NORMAL,NA,13,182,2014-04-26T10:00,183,,,,,,,,,,,,,,,,,,,lb,Alanine Aminotransfera,33,U/L
SCREENING 1,CDISCPILOT01,LB,01-701-1444,1444,1/5/13,2/13/13,1/5/13,2/12/13,NA,6/20/13,NA,NA,701,63,YEARS,M,WHITE,HISPANIC OR LATINO,Xan_Hi,Xanomeline High Dose,Xan_Hi,Xanomeline High Dose,USA,12/31/12,-5,3,ALT,Alanine Aminotransfera,CHEMISTRY,19,U/L,6,43,19,19,U/L,6,43,NORMAL,Y,1,-7,2012-12-31T11:05,-5,,,,,,,,,,,,,,,,,,,lb,Alanine Aminotransfera,19,U/L
WEEK 2,CDISCPILOT01,LB,01-701-1444,1444,1/5/13,2/13/13,1/5/13,2/12/13,NA,6/20/13,NA,NA,701,63,YEARS,M,WHITE,HISPANIC OR LATINO,Xan_Hi,Xanomeline High Dose,Xan_Hi,Xanomeline High Dose,USA,12/31/12,-5,40,ALT,Alanine Aminotransfera,CHEMISTRY,18,U/L,6,43,18,18,U/L,6,43,NORMAL,NA,4,14,2013-01-18T14:19,14,,,,,,,,,,,,,,,,,,,lb,Alanine Aminotransfera,18,U/L
WEEK 4,CDISCPILOT01,LB,01-701-1444,1444,1/5/13,2/13/13,1/5/13,2/12/13,NA,6/20/13,NA,NA,701,63,YEARS,M,WHITE,HISPANIC OR LATINO,Xan_Hi,Xanomeline High Dose,Xan_Hi,Xanomeline High Dose,USA,12/31/12,-5,75,ALT,Alanine Aminotransfera,CHEMISTRY,17,U/L,6,43,17,17,U/L,6,43,NORMAL,NA,5,28,2013-01-31T12:36,27,,,,,,,,,,,,,,,,,,,lb,Alanine Aminotransfera,17,U/L
WEEK 6,CDISCPILOT01,LB,01-701-1444,1444,1/5/13,2/13/13,1/5/13,2/12/13,NA,6/20/13,NA,NA,701,63,YEARS,M,WHITE,HISPANIC OR LATINO,Xan_Hi,Xanomeline High Dose,Xan_Hi,Xanomeline High Dose,USA,12/31/12,-5,105,ALT,Alanine Aminotransfera,CHEMISTRY,23,U/L,6,43,23,23,U/L,6,43,NORMAL,NA,7,42,2013-02-13T15:53,40,,,,,,,,,,,,,,,,,,,lb,Alanine Aminotransfera,23,U/L
SCREENING 1,CDISCPILOT01,LB,01-702-1082,1082,7/26/13,11/17/13,7/26/13,10/13/13,NA,2013-11-17T12:20,NA,NA,702,84,YEARS,F,WHITE,NOT HISPANIC OR LATINO,Xan_Lo,Xanomeline Low Dose,Xan_Lo,Xanomeline Low Dose,USA,7/3/13,-23,3,ALT,Alanine Aminotransfera,CHEMISTRY,20,U/L,6,32,20,20,U/L,6,32,NORMAL,Y,1,-7,2013-07-03T14:00,-23,,,,,,,,,,,,,,,,,,,lb,Alanine Aminotransfera,20,U/L
UNSCHEDULED 1,CDISCPILOT01,LB,01-702-1082,1082,7/26/13,11/17/13,7/26/13,10/13/13,NA,2013-11-17T12:20,NA,NA,702,84,YEARS,F,WHITE,NOT HISPANIC OR LATINO,Xan_Lo,Xanomeline Low Dose,Xan_Lo,Xanomeline Low Dose,USA,7/3/13,-23,40,ALT,Alanine Aminotransfera,CHEMISTRY,37,U/L,6,32,37,37,U/L,6,32,HIGH,NA,1.1,NA,2013-07-24T14:00,-2,,,,,,,,,,,,,,,,,,,lb,Alanine Aminotransfera,37,U/L
WEEK 2,CDISCPILOT01,LB,01-702-1082,1082,7/26/13,11/17/13,7/26/13,10/13/13,NA,2013-11-17T12:20,NA,NA,702,84,YEARS,F,WHITE,NOT HISPANIC OR LATINO,Xan_Lo,Xanomeline Low Dose,Xan_Lo,Xanomeline Low Dose,USA,7/3/13,-23,76,ALT,Alanine Aminotransfera,CHEMISTRY,35,U/L,6,32,35,35,U/L,6,32,HIGH,NA,4,14,2013-08-08T14:00,14,,,,,,,,,,,,,,,,,,,lb,Alanine Aminotransfera,35,U/L
WEEK 4,CDISCPILOT01,LB,01-702-1082,1082,7/26/13,11/17/13,7/26/13,10/13/13,NA,2013-11-17T12:20,NA,NA,702,84,YEARS,F,WHITE,NOT HISPANIC OR LATINO,Xan_Lo,Xanomeline Low Dose,Xan_Lo,Xanomeline Low Dose,USA,7/3/13,-23,111,ALT,Alanine Aminotransfera,CHEMISTRY,26,U/L,6,32,26,26,U/L,6,32,NORMAL,NA,5,28,2013-08-24T10:30,30,,,,,,,,,,,,,,,,,,,lb,Alanine Aminotransfera,26,U/L
WEEK 6,CDISCPILOT01,LB,01-702-1082,1082,7/26/13,11/17/13,7/26/13,10/13/13,NA,2013-11-17T12:20,NA,NA,702,84,YEARS,F,WHITE,NOT HISPANIC OR LATINO,Xan_Lo,Xanomeline Low Dose,Xan_Lo,Xanomeline Low Dose,USA,7/3/13,-23,141,ALT,Alanine Aminotransfera,CHEMISTRY,25,U/L,6,32,25,25,U/L,6,32,NORMAL,NA,7,42,2013-09-06T16:00,43,,,,,,,,,,,,,,,,,,,lb,Alanine Aminotransfera,25,U/L
WEEK 8,CDISCPILOT01,LB,01-702-1082,1082,7/26/13,11/17/13,7/26/13,10/13/13,NA,2013-11-17T12:20,NA,NA,702,84,YEARS,F,WHITE,NOT HISPANIC OR LATINO,Xan_Lo,Xanomeline Low Dose,Xan_Lo,Xanomeline Low Dose,USA,7/3/13,-23,171,ALT,Alanine Aminotransfera,CHEMISTRY,24,U/L,6,32,24,24,U/L,6,32,NORMAL,NA,8,56,2013-09-28T12:00,65,,,,,,,,,,,,,,,,,,,lb,Alanine Aminotransfera,24,U/L
WEEK 12,CDISCPILOT01,LB,01-702-1082,1082,7/26/13,11/17/13,7/26/13,10/13/13,NA,2013-11-17T12:20,NA,NA,702,84,YEARS,F,WHITE,NOT HISPANIC OR LATINO,Xan_Lo,Xanomeline Low Dose,Xan_Lo,Xanomeline Low Dose,USA,7/3/13,-23,201,ALT,Alanine Aminotransfera,CHEMISTRY,23,U/L,6,32,23,23,U/L,6,32,NORMAL,NA,9,84,2013-11-17T12:20,115,,,,,,,,,,,,,,,,,,,lb,Alanine Aminotransfera,23,U/L
SCREENING 1,CDISCPILOT01,LB,01-703-1042,1042,3/2/13,8/31/13,3/2/13,8/31/13,NA,2013-08-31T11:00,NA,NA,703,64,YEARS,M,WHITE,NOT HISPANIC OR LATINO,Pbo,Placebo,Pbo,Placebo,USA,2/23/13,-7,3,ALT,Alanine Aminotransfera,CHEMISTRY,14,U/L,6,43,14,14,U/L,6,43,NORMAL,Y,1,-7,2012-12-27T12:45,-65,,,,,,,,,,,,,,,,,,,lb,Alanine Aminotransfera,14,U/L
UNSCHEDULED 1,CDISCPILOT01,LB,01-703-1042,1042,3/2/13,8/31/13,3/2/13,8/31/13,NA,2013-08-31T11:00,NA,NA,703,64,YEARS,M,WHITE,NOT HISPANIC OR LATINO,Pbo,Placebo,Pbo,Placebo,USA,2/23/13,-7,40,ALT,Alanine Aminotransfera,CHEMISTRY,19,U/L,6,43,19,19,U/L,6,43,NORMAL,NA,1.1,NA,2013-02-21T13:30,-9,,,,,,,,,,,,,,,,,,,lb,Alanine Aminotransfera,19,U/L
WEEK 2,CDISCPILOT01,LB,01-703-1042,1042,3/2/13,8/31/13,3/2/13,8/31/13,NA,2013-08-31T11:00,NA,NA,703,64,YEARS,M,WHITE,NOT HISPANIC OR LATINO,Pbo,Placebo,Pbo,Placebo,USA,2/23/13,-7,77,ALT,Alanine Aminotransfera,CHEMISTRY,14,U/L,6,43,14,14,U/L,6,43,NORMAL,NA,4,14,2013-03-14T12:00,13,,,,,,,,,,,,,,,,,,,lb,Alanine Aminotransfera,14,U/L
WEEK 4,CDISCPILOT01,LB,01-703-1042,1042,3/2/13,8/31/13,3/2/13,8/31/13,NA,2013-08-31T11:00,NA,NA,703,64,YEARS,M,WHITE,NOT HISPANIC OR LATINO,Pbo,Placebo,Pbo,Placebo,USA,2/23/13,-7,112,ALT,Alanine Aminotransfera,CHEMISTRY,17,U/L,6,43,17,17,U/L,6,43,NORMAL,NA,5,28,2013-03-28T14:40,27,,,,,,,,,,,,,,,,,,,lb,Alanine Aminotransfera,17,U/L
WEEK 6,CDISCPILOT01,LB,01-703-1042,1042,3/2/13,8/31/13,3/2/13,8/31/13,NA,2013-08-31T11:00,NA,NA,703,64,YEARS,M,WHITE,NOT HISPANIC OR LATINO,Pbo,Placebo,Pbo,Placebo,USA,2/23/13,-7,143,ALT,Alanine Aminotransfera,CHEMISTRY,20,U/L,6,43,20,20,U/L,6,43,NORMAL,NA,7,42,2013-04-13T11:20,43,,,,,,,,,,,,,,,,,,,lb,Alanine Aminotransfera,20,U/L
WEEK 8,CDISCPILOT01,LB,01-703-1042,1042,3/2/13,8/31/13,3/2/13,8/31/13,NA,2013-08-31T11:00,NA,NA,703,64,YEARS,M,WHITE,NOT HISPANIC OR LATINO,Pbo,Placebo,Pbo,Placebo,USA,2/23/13,-7,173,ALT,Alanine Aminotransfera,CHEMISTRY,18,U/L,6,43,18,18,U/L,6,43,NORMAL,NA,8,56,2013-04-27T10:55,57,,,,,,,,,,,,,,,,,,,lb,Alanine Aminotransfera,18,U/L
WEEK 12,CDISCPILOT01,LB,01-703-1042,1042,3/2/13,8/31/13,3/2/13,8/31/13,NA,2013-08-31T11:00,NA,NA,703,64,YEARS,M,WHITE,NOT HISPANIC OR LATINO,Pbo,Placebo,Pbo,Placebo,USA,2/23/13,-7,203,ALT,Alanine Aminotransfera,CHEMISTRY,22,U/L,6,43,22,22,U/L,6,43,NORMAL,NA,9,84,2013-05-25T10:30,85,,,,,,,,,,,,,,,,,,,lb,Alanine Aminotransfera,22,U/L
WEEK 16,CDISCPILOT01,LB,01-703-1042,1042,3/2/13,8/31/13,3/2/13,8/31/13,NA,2013-08-31T11:00,NA,NA,703,64,YEARS,M,WHITE,NOT HISPANIC OR LATINO,Pbo,Placebo,Pbo,Placebo,USA,2/23/13,-7,238,ALT,Alanine Aminotransfera,CHEMISTRY,19,U/L,6,43,19,19,U/L,6,43,NORMAL,NA,10,112,2013-06-22T11:35,113,,,,,,,,,,,,,,,,,,,lb,Alanine Aminotransfera,19,U/L
WEEK 20,CDISCPILOT01,LB,01-703-1042,1042,3/2/13,8/31/13,3/2/13,8/31/13,NA,2013-08-31T11:00,NA,NA,703,64,YEARS,M,WHITE,NOT HISPANIC OR LATINO,Pbo,Placebo,Pbo,Placebo,USA,2/23/13,-7,268,ALT,Alanine Aminotransfera,CHEMISTRY,22,U/L,6,43,22,22,U/L,6,43,NORMAL,NA,11,140,2013-07-20T10:30,141,,,,,,,,,,,,,,,,,,,lb,Alanine Aminotransfera,22,U/L
WEEK 24,CDISCPILOT01,LB,01-703-1042,1042,3/2/13,8/31/13,3/2/13,8/31/13,NA,2013-08-31T11:00,NA,NA,703,64,YEARS,M,WHITE,NOT HISPANIC OR LATINO,Pbo,Placebo,Pbo,Placebo,USA,2/23/13,-7,298,ALT,Alanine Aminotransfera,CHEMISTRY,17,U/L,6,43,17,17,U/L,6,43,NORMAL,NA,12,168,2013-08-09T13:45,161,,,,,,,,,,,,,,,,,,,lb,Alanine Aminotransfera,17,U/L
WEEK 26,CDISCPILOT01,LB,01-703-1042,1042,3/2/13,8/31/13,3/2/13,8/31/13,NA,2013-08-31T11:00,NA,NA,703,64,YEARS,M,WHITE,NOT HISPANIC OR LATINO,Pbo,Placebo,Pbo,Placebo,USA,2/23/13,-7,333,ALT,Alanine Aminotransfera,CHEMISTRY,31,U/L,6,43,31,31,U/L,6,43,NORMAL,NA,13,182,2013-08-31T11:00,183,,,,,,,,,,,,,,,,,,,lb,Alanine Aminotransfera,31,U/L
SCREENING 1,CDISCPILOT01,LB,01-703-1076,1076,10/25/13,12/24/13,10/25/13,12/24/13,NA,1/21/14,NA,NA,703,69,YEARS,M,WHITE,NOT HISPANIC OR LATINO,Xan_Hi,Xanomeline High Dose,Xan_Hi,Xanomeline High Dose,USA,10/17/13,-8,3,ALT,Alanine Aminotransfera,CHEMISTRY,19,U/L,6,35,19,19,U/L,6,35,NORMAL,Y,1,-7,2013-10-16T11:30,-9,,,,,,,,,,,,,,,,,,,lb,Alanine Aminotransfera,19,U/L
WEEK 2,CDISCPILOT01,LB,01-703-1076,1076,10/25/13,12/24/13,10/25/13,12/24/13,NA,1/21/14,NA,NA,703,69,YEARS,M,WHITE,NOT HISPANIC OR LATINO,Xan_Hi,Xanomeline High Dose,Xan_Hi,Xanomeline High Dose,USA,10/17/13,-8,40,ALT,Alanine Aminotransfera,CHEMISTRY,22,U/L,6,35,22,22,U/L,6,35,NORMAL,NA,4,14,2013-11-06T10:00,13,,,,,,,,,,,,,,,,,,,lb,Alanine Aminotransfera,22,U/L
WEEK 4,CDISCPILOT01,LB,01-703-1076,1076,10/25/13,12/24/13,10/25/13,12/24/13,NA,1/21/14,NA,NA,703,69,YEARS,M,WHITE,NOT HISPANIC OR LATINO,Xan_Hi,Xanomeline High Dose,Xan_Hi,Xanomeline High Dose,USA,10/17/13,-8,75,ALT,Alanine Aminotransfera,CHEMISTRY,24,U/L,6,35,24,24,U/L,6,35,NORMAL,NA,5,28,2013-11-20T09:11,27,,,,,,,,,,,,,,,,,,,lb,Alanine Aminotransfera,24,U/L
WEEK 6,CDISCPILOT01,LB,01-703-1076,1076,10/25/13,12/24/13,10/25/13,12/24/13,NA,1/21/14,NA,NA,703,69,YEARS,M,WHITE,NOT HISPANIC OR LATINO,Xan_Hi,Xanomeline High Dose,Xan_Hi,Xanomeline High Dose,USA,10/17/13,-8,105,ALT,Alanine Aminotransfera,CHEMISTRY,27,U/L,6,35,27,27,U/L,6,35,NORMAL,NA,7,42,2013-12-04T11:01,41,,,,,,,,,,,,,,,,,,,lb,Alanine Aminotransfera,27,U/L
WEEK 8,CDISCPILOT01,LB,01-703-1076,1076,10/25/13,12/24/13,10/25/13,12/24/13,NA,1/21/14,NA,NA,703,69,YEARS,M,WHITE,NOT HISPANIC OR LATINO,Xan_Hi,Xanomeline High Dose,Xan_Hi,Xanomeline High Dose,USA,10/17/13,-8,135,ALT,Alanine Aminotransfera,CHEMISTRY,26,U/L,6,35,26,26,U/L,6,35,NORMAL,NA,8,56,2013-12-17T10:00,54,,,,,,,,,,,,,,,,,,,lb,Alanine Aminotransfera,26,U/L
WEEK 12,CDISCPILOT01,LB,01-703-1076,1076,10/25/13,12/24/13,10/25/13,12/24/13,NA,1/21/14,NA,NA,703,69,YEARS,M,WHITE,NOT HISPANIC OR LATINO,Xan_Hi,Xanomeline High Dose,Xan_Hi,Xanomeline High Dose,USA,10/17/13,-8,165,ALT,Alanine Aminotransfera,CHEMISTRY,20,U/L,6,35,20,20,U/L,6,35,NORMAL,NA,9,84,2013-12-24T13:05,61,,,,,,,,,,,,,,,,,,,lb,Alanine Aminotransfera,20,U/L
SCREENING 1,CDISCPILOT01,LB,01-703-1086,1086,9/2/12,12/24/12,9/2/12,12/4/12,NA,3/26/13,NA,NA,703,71,YEARS,M,WHITE,NOT HISPANIC OR LATINO,Xan_Lo,Xanomeline Low Dose,Xan_Lo,Xanomeline Low Dose,USA,8/22/12,-11,3,ALT,Alanine Aminotransfera,CHEMISTRY,20,U/L,6,35,20,20,U/L,6,35,NORMAL,Y,1,-7,2012-08-19T14:50,-14,,,,,,,,,,,,,,,,,,,lb,Alanine Aminotransfera,20,U/L
WEEK 2,CDISCPILOT01,LB,01-703-1086,1086,9/2/12,12/24/12,9/2/12,12/4/12,NA,3/26/13,NA,NA,703,71,YEARS,M,WHITE,NOT HISPANIC OR LATINO,Xan_Lo,Xanomeline Low Dose,Xan_Lo,Xanomeline Low Dose,USA,8/22/12,-11,40,ALT,Alanine Aminotransfera,CHEMISTRY,29,U/L,6,35,29,29,U/L,6,35,NORMAL,NA,4,14,2012-09-16T11:10,15,,,,,,,,,,,,,,,,,,,lb,Alanine Aminotransfera,29,U/L
WEEK 4,CDISCPILOT01,LB,01-703-1086,1086,9/2/12,12/24/12,9/2/12,12/4/12,NA,3/26/13,NA,NA,703,71,YEARS,M,WHITE,NOT HISPANIC OR LATINO,Xan_Lo,Xanomeline Low Dose,Xan_Lo,Xanomeline Low Dose,USA,8/22/12,-11,75,ALT,Alanine Aminotransfera,CHEMISTRY,17,U/L,6,35,17,17,U/L,6,35,NORMAL,NA,5,28,2012-10-02T13:10,31,,,,,,,,,,,,,,,,,,,lb,Alanine Aminotransfera,17,U/L
WEEK 6,CDISCPILOT01,LB,01-703-1086,1086,9/2/12,12/24/12,9/2/12,12/4/12,NA,3/26/13,NA,NA,703,71,YEARS,M,WHITE,NOT HISPANIC OR LATINO,Xan_Lo,Xanomeline Low Dose,Xan_Lo,Xanomeline Low Dose,USA,8/22/12,-11,105,ALT,Alanine Aminotransfera,CHEMISTRY,13,U/L,6,35,13,13,U/L,6,35,NORMAL,NA,7,42,2012-10-13T08:20,42,,,,,,,,,,,,,,,,,,,lb,Alanine Aminotransfera,13,U/L
WEEK 8,CDISCPILOT01,LB,01-703-1086,1086,9/2/12,12/24/12,9/2/12,12/4/12,NA,3/26/13,NA,NA,703,71,YEARS,M,WHITE,NOT HISPANIC OR LATINO,Xan_Lo,Xanomeline Low Dose,Xan_Lo,Xanomeline Low Dose,USA,8/22/12,-11,135,ALT,Alanine Aminotransfera,CHEMISTRY,16,U/L,6,35,16,16,U/L,6,35,NORMAL,NA,8,56,2012-10-27T10:40,56,,,,,,,,,,,,,,,,,,,lb,Alanine Aminotransfera,16,U/L
WEEK 12,CDISCPILOT01,LB,01-703-1086,1086,9/2/12,12/24/12,9/2/12,12/4/12,NA,3/26/13,NA,NA,703,71,YEARS,M,WHITE,NOT HISPANIC OR LATINO,Xan_Lo,Xanomeline Low Dose,Xan_Lo,Xanomeline Low Dose,USA,8/22/12,-11,165,ALT,Alanine Aminotransfera,CHEMISTRY,12,U/L,6,35,12,12,U/L,6,35,NORMAL,NA,9,84,2012-11-27T09:30,87,,,,,,,,,,,,,,,,,,,lb,Alanine Aminotransfera,12,U/L
WEEK 16,CDISCPILOT01,LB,01-703-1086,1086,9/2/12,12/24/12,9/2/12,12/4/12,NA,3/26/13,NA,NA,703,71,YEARS,M,WHITE,NOT HISPANIC OR LATINO,Xan_Lo,Xanomeline Low Dose,Xan_Lo,Xanomeline Low Dose,USA,8/22/12,-11,200,ALT,Alanine Aminotransfera,CHEMISTRY,25,U/L,6,35,25,25,U/L,6,35,NORMAL,NA,10,112,2012-12-24T09:30,114,,,,,,,,,,,,,,,,,,,lb,Alanine Aminotransfera,25,U/L
SCREENING 1,CDISCPILOT01,LB,01-703-1096,1096,1/25/13,3/29/13,1/25/13,3/16/13,NA,3/29/13,NA,NA,703,81,YEARS,F,WHITE,NOT HISPANIC OR LATINO,Pbo,Placebo,Pbo,Placebo,USA,12/19/12,-37,3,ALT,Alanine Aminotransfera,CHEMISTRY,12,U/L,6,32,12,12,U/L,6,32,NORMAL,Y,1,-7,2012-12-05T11:30,-51,,,,,,,,,,,,,,,,,,,lb,Alanine Aminotransfera,12,U/L
UNSCHEDULED 1,CDISCPILOT01,LB,01-703-1096,1096,1/25/13,3/29/13,1/25/13,3/16/13,NA,3/29/13,NA,NA,703,81,YEARS,F,WHITE,NOT HISPANIC OR LATINO,Pbo,Placebo,Pbo,Placebo,USA,12/19/12,-37,52,ALT,Alanine Aminotransfera,CHEMISTRY,11,U/L,6,32,11,11,U/L,6,32,NORMAL,NA,1.3,NA,2013-01-23T18:00,-2,,,,,,,,,,,,,,,,,,,lb,Alanine Aminotransfera,11,U/L
WEEK 4,CDISCPILOT01,LB,01-703-1096,1096,1/25/13,3/29/13,1/25/13,3/16/13,NA,3/29/13,NA,NA,703,81,YEARS,F,WHITE,NOT HISPANIC OR LATINO,Pbo,Placebo,Pbo,Placebo,USA,12/19/12,-37,101,ALT,Alanine Aminotransfera,CHEMISTRY,10,U/L,6,32,10,10,U/L,6,32,NORMAL,NA,5,28,2013-02-23T17:10,30,,,,,,,,,,,,,,,,,,,lb,Alanine Aminotransfera,10,U/L
SCREENING 1,CDISCPILOT01,LB,01-703-1100,1100,3/13/13,9/14/13,3/13/13,9/14/13,NA,2013-09-14T15:00,NA,NA,703,84,YEARS,F,WHITE,NOT HISPANIC OR LATINO,Pbo,Placebo,Pbo,Placebo,USA,2/28/13,-13,3,ALT,Alanine Aminotransfera,CHEMISTRY,11,U/L,6,32,11,11,U/L,6,32,NORMAL,Y,1,-7,2012-12-13T17:30,-90,,,,,,,,,,,,,,,,,,,lb,Alanine Aminotransfera,11,U/L
UNSCHEDULED 1,CDISCPILOT01,LB,01-703-1100,1100,3/13/13,9/14/13,3/13/13,9/14/13,NA,2013-09-14T15:00,NA,NA,703,84,YEARS,F,WHITE,NOT HISPANIC OR LATINO,Pbo,Placebo,Pbo,Placebo,USA,2/28/13,-13,41,ALT,Alanine Aminotransfera,CHEMISTRY,18,U/L,6,32,18,18,U/L,6,32,NORMAL,NA,1.2,NA,2013-02-28T15:30,-13,,,,,,,,,,,,,,,,,,,lb,Alanine Aminotransfera,18,U/L
WEEK 2,CDISCPILOT01,LB,01-703-1100,1100,3/13/13,9/14/13,3/13/13,9/14/13,NA,2013-09-14T15:00,NA,NA,703,84,YEARS,F,WHITE,NOT HISPANIC OR LATINO,Pbo,Placebo,Pbo,Placebo,USA,2/28/13,-13,78,ALT,Alanine Aminotransfera,CHEMISTRY,17,U/L,6,32,17,17,U/L,6,32,NORMAL,NA,4,14,2013-03-29T10:30,17,,,,,,,,,,,,,,,,,,,lb,Alanine Aminotransfera,17,U/L
WEEK 4,CDISCPILOT01,LB,01-703-1100,1100,3/13/13,9/14/13,3/13/13,9/14/13,NA,2013-09-14T15:00,NA,NA,703,84,YEARS,F,WHITE,NOT HISPANIC OR LATINO,Pbo,Placebo,Pbo,Placebo,USA,2/28/13,-13,113,ALT,Alanine Aminotransfera,CHEMISTRY,10,U/L,6,32,10,10,U/L,6,32,NORMAL,NA,5,28,2013-04-12T11:45,31,,,,,,,,,,,,,,,,,,,lb,Alanine Aminotransfera,10,U/L
WEEK 6,CDISCPILOT01,LB,01-703-1100,1100,3/13/13,9/14/13,3/13/13,9/14/13,NA,2013-09-14T15:00,NA,NA,703,84,YEARS,F,WHITE,NOT HISPANIC OR LATINO,Pbo,Placebo,Pbo,Placebo,USA,2/28/13,-13,143,ALT,Alanine Aminotransfera,CHEMISTRY,10,U/L,6,32,10,10,U/L,6,32,NORMAL,NA,7,42,2013-04-24T10:00,43,,,,,,,,,,,,,,,,,,,lb,Alanine Aminotransfera,10,U/L
WEEK 8,CDISCPILOT01,LB,01-703-1100,1100,3/13/13,9/14/13,3/13/13,9/14/13,NA,2013-09-14T15:00,NA,NA,703,84,YEARS,F,WHITE,NOT HISPANIC OR LATINO,Pbo,Placebo,Pbo,Placebo,USA,2/28/13,-13,173,ALT,Alanine Aminotransfera,CHEMISTRY,11,U/L,6,32,11,11,U/L,6,32,NORMAL,NA,8,56,2013-05-08T11:00,57,,,,,,,,,,,,,,,,,,,lb,Alanine Aminotransfera,11,U/L
WEEK 12,CDISCPILOT01,LB,01-703-1100,1100,3/13/13,9/14/13,3/13/13,9/14/13,NA,2013-09-14T15:00,NA,NA,703,84,YEARS,F,WHITE,NOT HISPANIC OR LATINO,Pbo,Placebo,Pbo,Placebo,USA,2/28/13,-13,203,ALT,Alanine Aminotransfera,CHEMISTRY,12,U/L,6,32,12,12,U/L,6,32,NORMAL,NA,9,84,2013-06-05T15:05,85,,,,,,,,,,,,,,,,,,,lb,Alanine Aminotransfera,12,U/L
WEEK 16,CDISCPILOT01,LB,01-703-1100,1100,3/13/13,9/14/13,3/13/13,9/14/13,NA,2013-09-14T15:00,NA,NA,703,84,YEARS,F,WHITE,NOT HISPANIC OR LATINO,Pbo,Placebo,Pbo,Placebo,USA,2/28/13,-13,238,ALT,Alanine Aminotransfera,CHEMISTRY,11,U/L,6,32,11,11,U/L,6,32,NORMAL,NA,10,112,2013-07-03T10:00,113,,,,,,,,,,,,,,,,,,,lb,Alanine Aminotransfera,11,U/L
WEEK 20,CDISCPILOT01,LB,01-703-1100,1100,3/13/13,9/14/13,3/13/13,9/14/13,NA,2013-09-14T15:00,NA,NA,703,84,YEARS,F,WHITE,NOT HISPANIC OR LATINO,Pbo,Placebo,Pbo,Placebo,USA,2/28/13,-13,268,ALT,Alanine Aminotransfera,CHEMISTRY,10,U/L,6,32,10,10,U/L,6,32,NORMAL,NA,11,140,2013-07-31T13:20,141,,,,,,,,,,,,,,,,,,,lb,Alanine Aminotransfera,10,U/L
WEEK 24,CDISCPILOT01,LB,01-703-1100,1100,3/13/13,9/14/13,3/13/13,9/14/13,NA,2013-09-14T15:00,NA,NA,703,84,YEARS,F,WHITE,NOT HISPANIC OR LATINO,Pbo,Placebo,Pbo,Placebo,USA,2/28/13,-13,298,ALT,Alanine Aminotransfera,CHEMISTRY,12,U/L,6,32,12,12,U/L,6,32,NORMAL,NA,12,168,2013-08-28T10:15,169,,,,,,,,,,,,,,,,,,,lb,Alanine Aminotransfera,12,U/L
WEEK 26,CDISCPILOT01,LB,01-703-1100,1100,3/13/13,9/14/13,3/13/13,9/14/13,NA,2013-09-14T15:00,NA,NA,703,84,YEARS,F,WHITE,NOT HISPANIC OR LATINO,Pbo,Placebo,Pbo,Placebo,USA,2/28/13,-13,333,ALT,Alanine Aminotransfera,CHEMISTRY,9,U/L,6,32,9,9,U/L,6,32,NORMAL,NA,13,182,2013-09-14T15:00,186,,,,,,,,,,,,,,,,,,,lb,Alanine Aminotransfera,9,U/L
UNSCHEDULED 1,CDISCPILOT01,LB,01-703-1119,1119,2/20/13,6/13/13,2/20/13,6/13/13,NA,8/24/13,NA,NA,703,81,YEARS,F,WHITE,NOT HISPANIC OR LATINO,Xan_Lo,Xanomeline Low Dose,Xan_Lo,Xanomeline Low Dose,USA,2/2/13,-18,5,ALT,Alanine Aminotransfera,CHEMISTRY,20,U/L,6,32,20,20,U/L,6,32,NORMAL,NA,1.3,NA,2013-02-14T13:30,-6,,,,,,,,,,,,,,,,,,,lb,Alanine Aminotransfera,20,U/L
WEEK 2,CDISCPILOT01,LB,01-703-1119,1119,2/20/13,6/13/13,2/20/13,6/13/13,NA,8/24/13,NA,NA,703,81,YEARS,F,WHITE,NOT HISPANIC OR LATINO,Xan_Lo,Xanomeline Low Dose,Xan_Lo,Xanomeline Low Dose,USA,2/2/13,-18,41,ALT,Alanine Aminotransfera,CHEMISTRY,23,U/L,6,32,23,23,U/L,6,32,NORMAL,NA,4,14,2013-03-10T10:40,19,,,,,,,,,,,,,,,,,,,lb,Alanine Aminotransfera,23,U/L
WEEK 4,CDISCPILOT01,LB,01-703-1119,1119,2/20/13,6/13/13,2/20/13,6/13/13,NA,8/24/13,NA,NA,703,81,YEARS,F,WHITE,NOT HISPANIC OR LATINO,Xan_Lo,Xanomeline Low Dose,Xan_Lo,Xanomeline Low Dose,USA,2/2/13,-18,76,ALT,Alanine Aminotransfera,CHEMISTRY,24,U/L,6,32,24,24,U/L,6,32,NORMAL,NA,5,28,2013-03-21T12:10,30,,,,,,,,,,,,,,,,,,,lb,Alanine Aminotransfera,24,U/L
WEEK 6,CDISCPILOT01,LB,01-703-1119,1119,2/20/13,6/13/13,2/20/13,6/13/13,NA,8/24/13,NA,NA,703,81,YEARS,F,WHITE,NOT HISPANIC OR LATINO,Xan_Lo,Xanomeline Low Dose,Xan_Lo,Xanomeline Low Dose,USA,2/2/13,-18,106,ALT,Alanine Aminotransfera,CHEMISTRY,20,U/L,6,32,20,20,U/L,6,32,NORMAL,NA,7,42,2013-04-04T13:00,44,,,,,,,,,,,,,,,,,,,lb,Alanine Aminotransfera,20,U/L
WEEK 8,CDISCPILOT01,LB,01-703-1119,1119,2/20/13,6/13/13,2/20/13,6/13/13,NA,8/24/13,NA,NA,703,81,YEARS,F,WHITE,NOT HISPANIC OR LATINO,Xan_Lo,Xanomeline Low Dose,Xan_Lo,Xanomeline Low Dose,USA,2/2/13,-18,136,ALT,Alanine Aminotransfera,CHEMISTRY,27,U/L,6,32,27,27,U/L,6,32,NORMAL,NA,8,56,2013-04-19T11:00,59,,,,,,,,,,,,,,,,,,,lb,Alanine Aminotransfera,27,U/L
WEEK 12,CDISCPILOT01,LB,01-703-1119,1119,2/20/13,6/13/13,2/20/13,6/13/13,NA,8/24/13,NA,NA,703,81,YEARS,F,WHITE,NOT HISPANIC OR LATINO,Xan_Lo,Xanomeline Low Dose,Xan_Lo,Xanomeline Low Dose,USA,2/2/13,-18,166,ALT,Alanine Aminotransfera,CHEMISTRY,44,U/L,6,32,44,44,U/L,6,32,HIGH,NA,9,84,2013-05-17T11:25,87,,,,,,,,,,,,,,,,,,,lb,Alanine Aminotransfera,44,U/L
WEEK 16,CDISCPILOT01,LB,01-703-1119,1119,2/20/13,6/13/13,2/20/13,6/13/13,NA,8/24/13,NA,NA,703,81,YEARS,F,WHITE,NOT HISPANIC OR LATINO,Xan_Lo,Xanomeline Low Dose,Xan_Lo,Xanomeline Low Dose,USA,2/2/13,-18,201,ALT,Alanine Aminotransfera,CHEMISTRY,18,U/L,6,32,18,18,U/L,6,32,NORMAL,NA,10,112,2013-06-13T12:15,114,,,,,,,,,,,,,,,,,,,lb,Alanine Aminotransfera,18,U/L
SCREENING 1,CDISCPILOT01,LB,01-703-1175,1175,12/20/13,12/31/13,12/20/13,12/26/13,NA,2013-12-31T13:15,NA,NA,703,75,YEARS,M,WHITE,NOT HISPANIC OR LATINO,Pbo,Placebo,Pbo,Placebo,USA,12/13/13,-7,3,ALT,Alanine Aminotransfera,CHEMISTRY,19,U/L,6,35,19,19,U/L,6,35,NORMAL,Y,1,-7,2013-12-10T14:25,-10,,,,,,,,,,,,,,,,,,,lb,Alanine Aminotransfera,19,U/L
WEEK 2,CDISCPILOT01,LB,01-703-1175,1175,12/20/13,12/31/13,12/20/13,12/26/13,NA,2013-12-31T13:15,NA,NA,703,75,YEARS,M,WHITE,NOT HISPANIC OR LATINO,Pbo,Placebo,Pbo,Placebo,USA,12/13/13,-7,40,ALT,Alanine Aminotransfera,CHEMISTRY,13,U/L,6,35,13,13,U/L,6,35,NORMAL,NA,4,14,2013-12-31T13:15,12,,,,,,,,,,,,,,,,,,,lb,Alanine Aminotransfera,13,U/L
SCREENING 1,CDISCPILOT01,LB,01-703-1182,1182,10/17/13,12/12/13,10/17/13,12/11/13,NA,1/14/14,NA,NA,703,84,YEARS,M,WHITE,NOT HISPANIC OR LATINO,Xan_Lo,Xanomeline Low Dose,Xan_Lo,Xanomeline Low Dose,USA,10/8/13,-9,3,ALT,Alanine Aminotransfera,CHEMISTRY,16,U/L,6,35,16,16,U/L,6,35,NORMAL,Y,1,-7,2013-10-01T13:25,-16,,,,,,,,,,,,,,,,,,,lb,Alanine Aminotransfera,16,U/L
WEEK 2,CDISCPILOT01,LB,01-703-1182,1182,10/17/13,12/12/13,10/17/13,12/11/13,NA,1/14/14,NA,NA,703,84,YEARS,M,WHITE,NOT HISPANIC OR LATINO,Xan_Lo,Xanomeline Low Dose,Xan_Lo,Xanomeline Low Dose,USA,10/8/13,-9,40,ALT,Alanine Aminotransfera,CHEMISTRY,12,U/L,6,35,12,12,U/L,6,35,NORMAL,NA,4,14,2013-10-31T11:50,15,,,,,,,,,,,,,,,,,,,lb,Alanine Aminotransfera,12,U/L
WEEK 4,CDISCPILOT01,LB,01-703-1182,1182,10/17/13,12/12/13,10/17/13,12/11/13,NA,1/14/14,NA,NA,703,84,YEARS,M,WHITE,NOT HISPANIC OR LATINO,Xan_Lo,Xanomeline Low Dose,Xan_Lo,Xanomeline Low Dose,USA,10/8/13,-9,75,ALT,Alanine Aminotransfera,CHEMISTRY,19,U/L,6,35,19,19,U/L,6,35,NORMAL,NA,5,28,2013-11-19T11:00,34,,,,,,,,,,,,,,,,,,,lb,Alanine Aminotransfera,19,U/L
WEEK 6,CDISCPILOT01,LB,01-703-1182,1182,10/17/13,12/12/13,10/17/13,12/11/13,NA,1/14/14,NA,NA,703,84,YEARS,M,WHITE,NOT HISPANIC OR LATINO,Xan_Lo,Xanomeline Low Dose,Xan_Lo,Xanomeline Low Dose,USA,10/8/13,-9,105,ALT,Alanine Aminotransfera,CHEMISTRY,15,U/L,6,35,15,15,U/L,6,35,NORMAL,NA,7,42,2013-11-28T13:00,43,,,,,,,,,,,,,,,,,,,lb,Alanine Aminotransfera,15,U/L
WEEK 8,CDISCPILOT01,LB,01-703-1182,1182,10/17/13,12/12/13,10/17/13,12/11/13,NA,1/14/14,NA,NA,703,84,YEARS,M,WHITE,NOT HISPANIC OR LATINO,Xan_Lo,Xanomeline Low Dose,Xan_Lo,Xanomeline Low Dose,USA,10/8/13,-9,135,ALT,Alanine Aminotransfera,CHEMISTRY,15,U/L,6,35,15,15,U/L,6,35,NORMAL,NA,8,56,2013-12-12T13:10,57,,,,,,,,,,,,,,,,,,,lb,Alanine Aminotransfera,15,U/L
SCREENING 1,CDISCPILOT01,LB,01-703-1197,1197,6/16/13,7/22/13,6/16/13,6/29/13,NA,7/22/13,NA,NA,703,76,YEARS,F,BLACK OR AFRICAN AMERICAN,NOT HISPANIC OR LATINO,Xan_Lo,Xanomeline Low Dose,Xan_Lo,Xanomeline Low Dose,USA,6/1/13,-15,3,ALT,Alanine Aminotransfera,CHEMISTRY,18,U/L,6,32,18,18,U/L,6,32,NORMAL,Y,1,-7,2013-03-07T14:30,-101,,,,,,,,,,,,,,,,,,,lb,Alanine Aminotransfera,18,U/L
UNSCHEDULED 1,CDISCPILOT01,LB,01-703-1197,1197,6/16/13,7/22/13,6/16/13,6/29/13,NA,7/22/13,NA,NA,703,76,YEARS,F,BLACK OR AFRICAN AMERICAN,NOT HISPANIC OR LATINO,Xan_Lo,Xanomeline Low Dose,Xan_Lo,Xanomeline Low Dose,USA,6/1/13,-15,40,ALT,Alanine Aminotransfera,CHEMISTRY,18,U/L,6,32,18,18,U/L,6,32,NORMAL,NA,1.1,NA,2013-06-01T10:00,-15,,,,,,,,,,,,,,,,,,,lb,Alanine Aminotransfera,18,U/L
SCREENING 1,CDISCPILOT01,LB,01-703-1210,1210,3/16/13,9/6/13,3/16/13,9/6/13,NA,2013-09-06T13:30,NA,NA,703,72,YEARS,F,WHITE,NOT HISPANIC OR LATINO,Pbo,Placebo,Pbo,Placebo,USA,3/8/13,-8,3,ALT,Alanine Aminotransfera,CHEMISTRY,16,U/L,6,32,16,16,U/L,6,32,NORMAL,Y,1,-7,2013-02-28T15:10,-16,,,,,,,,,,,,,,,,,,,lb,Alanine Aminotransfera,16,U/L
WEEK 2,CDISCPILOT01,LB,01-703-1210,1210,3/16/13,9/6/13,3/16/13,9/6/13,NA,2013-09-06T13:30,NA,NA,703,72,YEARS,F,WHITE,NOT HISPANIC OR LATINO,Pbo,Placebo,Pbo,Placebo,USA,3/8/13,-8,40,ALT,Alanine Aminotransfera,CHEMISTRY,18,U/L,6,32,18,18,U/L,6,32,NORMAL,NA,4,14,2013-03-30T15:10,15,,,,,,,,,,,,,,,,,,,lb,Alanine Aminotransfera,18,U/L
WEEK 4,CDISCPILOT01,LB,01-703-1210,1210,3/16/13,9/6/13,3/16/13,9/6/13,NA,2013-09-06T13:30,NA,NA,703,72,YEARS,F,WHITE,NOT HISPANIC OR LATINO,Pbo,Placebo,Pbo,Placebo,USA,3/8/13,-8,75,ALT,Alanine Aminotransfera,CHEMISTRY,18,U/L,6,32,18,18,U/L,6,32,NORMAL,NA,5,28,2013-04-12T11:37,28,,,,,,,,,,,,,,,,,,,lb,Alanine Aminotransfera,18,U/L
WEEK 8,CDISCPILOT01,LB,01-703-1210,1210,3/16/13,9/6/13,3/16/13,9/6/13,NA,2013-09-06T13:30,NA,NA,703,72,YEARS,F,WHITE,NOT HISPANIC OR LATINO,Pbo,Placebo,Pbo,Placebo,USA,3/8/13,-8,117,ALT,Alanine Aminotransfera,CHEMISTRY,13,U/L,6,32,13,13,U/L,6,32,NORMAL,NA,8,56,2013-05-10T13:30,56,,,,,,,,,,,,,,,,,,,lb,Alanine Aminotransfera,13,U/L
WEEK 12,CDISCPILOT01,LB,01-703-1210,1210,3/16/13,9/6/13,3/16/13,9/6/13,NA,2013-09-06T13:30,NA,NA,703,72,YEARS,F,WHITE,NOT HISPANIC OR LATINO,Pbo,Placebo,Pbo,Placebo,USA,3/8/13,-8,147,ALT,Alanine Aminotransfera,CHEMISTRY,15,U/L,6,32,15,15,U/L,6,32,NORMAL,NA,9,84,2013-06-07T13:00,84,,,,,,,,,,,,,,,,,,,lb,Alanine Aminotransfera,15,U/L
WEEK 16,CDISCPILOT01,LB,01-703-1210,1210,3/16/13,9/6/13,3/16/13,9/6/13,NA,2013-09-06T13:30,NA,NA,703,72,YEARS,F,WHITE,NOT HISPANIC OR LATINO,Pbo,Placebo,Pbo,Placebo,USA,3/8/13,-8,182,ALT,Alanine Aminotransfera,CHEMISTRY,15,U/L,6,32,15,15,U/L,6,32,NORMAL,NA,10,112,2013-07-05T14:45,112,,,,,,,,,,,,,,,,,,,lb,Alanine Aminotransfera,15,U/L
WEEK 20,CDISCPILOT01,LB,01-703-1210,1210,3/16/13,9/6/13,3/16/13,9/6/13,NA,2013-09-06T13:30,NA,NA,703,72,YEARS,F,WHITE,NOT HISPANIC OR LATINO,Pbo,Placebo,Pbo,Placebo,USA,3/8/13,-8,212,ALT,Alanine Aminotransfera,CHEMISTRY,14,U/L,6,32,14,14,U/L,6,32,NORMAL,NA,11,140,2013-07-27T13:45,134,,,,,,,,,,,,,,,,,,,lb,Alanine Aminotransfera,14,U/L
WEEK 24,CDISCPILOT01,LB,01-703-1210,1210,3/16/13,9/6/13,3/16/13,9/6/13,NA,2013-09-06T13:30,NA,NA,703,72,YEARS,F,WHITE,NOT HISPANIC OR LATINO,Pbo,Placebo,Pbo,Placebo,USA,3/8/13,-8,242,ALT,Alanine Aminotransfera,CHEMISTRY,14,U/L,6,32,14,14,U/L,6,32,NORMAL,NA,12,168,2013-08-24T13:00,162,,,,,,,,,,,,,,,,,,,lb,Alanine Aminotransfera,14,U/L
WEEK 26,CDISCPILOT01,LB,01-703-1210,1210,3/16/13,9/6/13,3/16/13,9/6/13,NA,2013-09-06T13:30,NA,NA,703,72,YEARS,F,WHITE,NOT HISPANIC OR LATINO,Pbo,Placebo,Pbo,Placebo,USA,3/8/13,-8,277,ALT,Alanine Aminotransfera,CHEMISTRY,14,U/L,6,32,14,14,U/L,6,32,NORMAL,NA,13,182,2013-09-06T13:30,175,,,,,,,,,,,,,,,,,,,lb,Alanine Aminotransfera,14,U/L
SCREENING 1,CDISCPILOT01,LB,01-703-1258,1258,7/20/12,1/21/13,7/20/12,1/11/13,NA,1/28/13,NA,NA,703,78,YEARS,F,WHITE,NOT HISPANIC OR LATINO,Xan_Hi,Xanomeline High Dose,Xan_Hi,Xanomeline High Dose,USA,7/10/12,-10,3,ALT,Alanine Aminotransfera,CHEMISTRY,43,U/L,6,32,43,43,U/L,6,32,HIGH,Y,1,-7,2012-07-10T16:30,-10,,,,,,,,,,,,,,,,,,,lb,Alanine Aminotransfera,43,U/L
WEEK 2,CDISCPILOT01,LB,01-703-1258,1258,7/20/12,1/21/13,7/20/12,1/11/13,NA,1/28/13,NA,NA,703,78,YEARS,F,WHITE,NOT HISPANIC OR LATINO,Xan_Hi,Xanomeline High Dose,Xan_Hi,Xanomeline High Dose,USA,7/10/12,-10,40,ALT,Alanine Aminotransfera,CHEMISTRY,39,U/L,6,32,39,39,U/L,6,32,HIGH,NA,4,14,2012-07-31T11:45,12,,,,,,,,,,,,,,,,,,,lb,Alanine Aminotransfera,39,U/L
WEEK 4,CDISCPILOT01,LB,01-703-1258,1258,7/20/12,1/21/13,7/20/12,1/11/13,NA,1/28/13,NA,NA,703,78,YEARS,F,WHITE,NOT HISPANIC OR LATINO,Xan_Hi,Xanomeline High Dose,Xan_Hi,Xanomeline High Dose,USA,7/10/12,-10,70,ALT,Alanine Aminotransfera,CHEMISTRY,38,U/L,6,32,38,38,U/L,6,32,HIGH,NA,5,28,2012-08-17T11:15,29,,,,,,,,,,,,,,,,,,,lb,Alanine Aminotransfera,38,U/L
WEEK 6,CDISCPILOT01,LB,01-703-1258,1258,7/20/12,1/21/13,7/20/12,1/11/13,NA,1/28/13,NA,NA,703,78,YEARS,F,WHITE,NOT HISPANIC OR LATINO,Xan_Hi,Xanomeline High Dose,Xan_Hi,Xanomeline High Dose,USA,7/10/12,-10,100,ALT,Alanine Aminotransfera,CHEMISTRY,24,U/L,6,32,24,24,U/L,6,32,NORMAL,NA,7,42,2012-09-04T14:30,47,,,,,,,,,,,,,,,,,,,lb,Alanine Aminotransfera,24,U/L
WEEK 8,CDISCPILOT01,LB,01-703-1258,1258,7/20/12,1/21/13,7/20/12,1/11/13,NA,1/28/13,NA,NA,703,78,YEARS,F,WHITE,NOT HISPANIC OR LATINO,Xan_Hi,Xanomeline High Dose,Xan_Hi,Xanomeline High Dose,USA,7/10/12,-10,130,ALT,Alanine Aminotransfera,CHEMISTRY,25,U/L,6,32,25,25,U/L,6,32,NORMAL,NA,8,56,2012-09-14T15:40,57,,,,,,,,,,,,,,,,,,,lb,Alanine Aminotransfera,25,U/L
WEEK 12,CDISCPILOT01,LB,01-703-1258,1258,7/20/12,1/21/13,7/20/12,1/11/13,NA,1/28/13,NA,NA,703,78,YEARS,F,WHITE,NOT HISPANIC OR LATINO,Xan_Hi,Xanomeline High Dose,Xan_Hi,Xanomeline High Dose,USA,7/10/12,-10,160,ALT,Alanine Aminotransfera,CHEMISTRY,21,U/L,6,32,21,21,U/L,6,32,NORMAL,NA,9,84,2012-10-09T15:30,82,,,,,,,,,,,,,,,,,,,lb,Alanine Aminotransfera,21,U/L
WEEK 16,CDISCPILOT01,LB,01-703-1258,1258,7/20/12,1/21/13,7/20/12,1/11/13,NA,1/28/13,NA,NA,703,78,YEARS,F,WHITE,NOT HISPANIC OR LATINO,Xan_Hi,Xanomeline High Dose,Xan_Hi,Xanomeline High Dose,USA,7/10/12,-10,195,ALT,Alanine Aminotransfera,CHEMISTRY,27,U/L,6,32,27,27,U/L,6,32,NORMAL,NA,10,112,2012-11-05T12:30,109,,,,,,,,,,,,,,,,,,,lb,Alanine Aminotransfera,27,U/L
WEEK 20,CDISCPILOT01,LB,01-703-1258,1258,7/20/12,1/21/13,7/20/12,1/11/13,NA,1/28/13,NA,NA,703,78,YEARS,F,WHITE,NOT HISPANIC OR LATINO,Xan_Hi,Xanomeline High Dose,Xan_Hi,Xanomeline High Dose,USA,7/10/12,-10,225,ALT,Alanine Aminotransfera,CHEMISTRY,19,U/L,6,32,19,19,U/L,6,32,NORMAL,NA,11,140,2012-12-03T10:50,137,,,,,,,,,,,,,,,,,,,lb,Alanine Aminotransfera,19,U/L
WEEK 24,CDISCPILOT01,LB,01-703-1258,1258,7/20/12,1/21/13,7/20/12,1/11/13,NA,1/28/13,NA,NA,703,78,YEARS,F,WHITE,NOT HISPANIC OR LATINO,Xan_Hi,Xanomeline High Dose,Xan_Hi,Xanomeline High Dose,USA,7/10/12,-10,255,ALT,Alanine Aminotransfera,CHEMISTRY,19,U/L,6,32,19,19,U/L,6,32,NORMAL,NA,12,168,2012-12-31T11:30,165,,,,,,,,,,,,,,,,,,,lb,Alanine Aminotransfera,19,U/L
SCREENING 1,CDISCPILOT01,LB,01-703-1279,1279,5/13/13,6/22/13,5/13/13,6/3/13,NA,6/22/13,NA,NA,703,72,YEARS,F,WHITE,NOT HISPANIC OR LATINO,Xan_Lo,Xanomeline Low Dose,Xan_Lo,Xanomeline Low Dose,USA,4/27/13,-16,3,ALT,Alanine Aminotransfera,CHEMISTRY,11,U/L,6,32,11,11,U/L,6,32,NORMAL,Y,1,-7,2013-04-27T11:00,-16,,,,,,,,,,,,,,,,,,,lb,Alanine Aminotransfera,11,U/L
SCREENING 1,CDISCPILOT01,LB,01-703-1295,1295,11/21/13,5/19/14,11/21/13,4/19/14,NA,2014-05-19T14:45,NA,NA,703,88,YEARS,F,WHITE,NOT HISPANIC OR LATINO,Xan_Hi,Xanomeline High Dose,Xan_Hi,Xanomeline High Dose,USA,10/24/13,-28,3,ALT,Alanine Aminotransfera,CHEMISTRY,12,U/L,6,32,12,12,U/L,6,32,NORMAL,Y,1,-7,2013-10-24T12:10,-28,,,,,,,,,,,,,,,,,,,lb,Alanine Aminotransfera,12,U/L
UNSCHEDULED 1,CDISCPILOT01,LB,01-703-1295,1295,11/21/13,5/19/14,11/21/13,4/19/14,NA,2014-05-19T14:45,NA,NA,703,88,YEARS,F,WHITE,NOT HISPANIC OR LATINO,Xan_Hi,Xanomeline High Dose,Xan_Hi,Xanomeline High Dose,USA,10/24/13,-28,40,ALT,Alanine Aminotransfera,CHEMISTRY,14,U/L,6,32,14,14,U/L,6,32,NORMAL,NA,1.1,NA,2013-11-04T13:30,-17,,,,,,,,,,,,,,,,,,,lb,Alanine Aminotransfera,14,U/L
WEEK 2,CDISCPILOT01,LB,01-703-1295,1295,11/21/13,5/19/14,11/21/13,4/19/14,NA,2014-05-19T14:45,NA,NA,703,88,YEARS,F,WHITE,NOT HISPANIC OR LATINO,Xan_Hi,Xanomeline High Dose,Xan_Hi,Xanomeline High Dose,USA,10/24/13,-28,68,ALT,Alanine Aminotransfera,CHEMISTRY,19,U/L,6,32,19,19,U/L,6,32,NORMAL,NA,4,14,2013-12-05T12:30,15,,,,,,,,,,,,,,,,,,,lb,Alanine Aminotransfera,19,U/L
WEEK 4,CDISCPILOT01,LB,01-703-1295,1295,11/21/13,5/19/14,11/21/13,4/19/14,NA,2014-05-19T14:45,NA,NA,703,88,YEARS,F,WHITE,NOT HISPANIC OR LATINO,Xan_Hi,Xanomeline High Dose,Xan_Hi,Xanomeline High Dose,USA,10/24/13,-28,103,ALT,Alanine Aminotransfera,CHEMISTRY,21,U/L,6,32,21,21,U/L,6,32,NORMAL,NA,5,28,2013-12-18T12:45,28,,,,,,,,,,,,,,,,,,,lb,Alanine Aminotransfera,21,U/L
WEEK 6,CDISCPILOT01,LB,01-703-1295,1295,11/21/13,5/19/14,11/21/13,4/19/14,NA,2014-05-19T14:45,NA,NA,703,88,YEARS,F,WHITE,NOT HISPANIC OR LATINO,Xan_Hi,Xanomeline High Dose,Xan_Hi,Xanomeline High Dose,USA,10/24/13,-28,133,ALT,Alanine Aminotransfera,CHEMISTRY,14,U/L,6,32,14,14,U/L,6,32,NORMAL,NA,7,42,2014-01-01T13:15,42,,,,,,,,,,,,,,,,,,,lb,Alanine Aminotransfera,14,U/L
WEEK 8,CDISCPILOT01,LB,01-703-1295,1295,11/21/13,5/19/14,11/21/13,4/19/14,NA,2014-05-19T14:45,NA,NA,703,88,YEARS,F,WHITE,NOT HISPANIC OR LATINO,Xan_Hi,Xanomeline High Dose,Xan_Hi,Xanomeline High Dose,USA,10/24/13,-28,163,ALT,Alanine Aminotransfera,CHEMISTRY,13,U/L,6,32,13,13,U/L,6,32,NORMAL,NA,8,56,2014-01-15T13:00,56,,,,,,,,,,,,,,,,,,,lb,Alanine Aminotransfera,13,U/L
WEEK 12,CDISCPILOT01,LB,01-703-1295,1295,11/21/13,5/19/14,11/21/13,4/19/14,NA,2014-05-19T14:45,NA,NA,703,88,YEARS,F,WHITE,NOT HISPANIC OR LATINO,Xan_Hi,Xanomeline High Dose,Xan_Hi,Xanomeline High Dose,USA,10/24/13,-28,193,ALT,Alanine Aminotransfera,CHEMISTRY,15,U/L,6,32,15,15,U/L,6,32,NORMAL,NA,9,84,2014-02-18T11:30,90,,,,,,,,,,,,,,,,,,,lb,Alanine Aminotransfera,15,U/L
WEEK 16,CDISCPILOT01,LB,01-703-1295,1295,11/21/13,5/19/14,11/21/13,4/19/14,NA,2014-05-19T14:45,NA,NA,703,88,YEARS,F,WHITE,NOT HISPANIC OR LATINO,Xan_Hi,Xanomeline High Dose,Xan_Hi,Xanomeline High Dose,USA,10/24/13,-28,228,ALT,Alanine Aminotransfera,CHEMISTRY,19,U/L,6,32,19,19,U/L,6,32,NORMAL,NA,10,112,2014-03-13T12:45,113,,,,,,,,,,,,,,,,,,,lb,Alanine Aminotransfera,19,U/L
WEEK 20,CDISCPILOT01,LB,01-703-1295,1295,11/21/13,5/19/14,11/21/13,4/19/14,NA,2014-05-19T14:45,NA,NA,703,88,YEARS,F,WHITE,NOT HISPANIC OR LATINO,Xan_Hi,Xanomeline High Dose,Xan_Hi,Xanomeline High Dose,USA,10/24/13,-28,258,ALT,Alanine Aminotransfera,CHEMISTRY,10,U/L,6,32,10,10,U/L,6,32,NORMAL,NA,11,140,2014-05-19T14:45,180,,,,,,,,,,,,,,,,,,,lb,Alanine Aminotransfera,10,U/L
SCREENING 1,CDISCPILOT01,LB,01-703-1299,1299,9/12/12,3/13/13,9/12/12,3/13/13,NA,3/27/13,NA,NA,703,81,YEARS,F,WHITE,NOT HISPANIC OR LATINO,Pbo,Placebo,Pbo,Placebo,USA,9/7/12,-5,3,ALT,Alanine Aminotransfera,CHEMISTRY,9,U/L,6,32,9,9,U/L,6,32,NORMAL,Y,1,-7,2012-09-04T13:30,-8,,,,,,,,,,,,,,,,,,,lb,Alanine Aminotransfera,9,U/L
WEEK 2,CDISCPILOT01,LB,01-703-1299,1299,9/12/12,3/13/13,9/12/12,3/13/13,NA,3/27/13,NA,NA,703,81,YEARS,F,WHITE,NOT HISPANIC OR LATINO,Pbo,Placebo,Pbo,Placebo,USA,9/7/12,-5,40,ALT,Alanine Aminotransfera,CHEMISTRY,13,U/L,6,32,13,13,U/L,6,32,NORMAL,NA,4,14,2012-09-28T11:00,17,,,,,,,,,,,,,,,,,,,lb,Alanine Aminotransfera,13,U/L
WEEK 4,CDISCPILOT01,LB,01-703-1299,1299,9/12/12,3/13/13,9/12/12,3/13/13,NA,3/27/13,NA,NA,703,81,YEARS,F,WHITE,NOT HISPANIC OR LATINO,Pbo,Placebo,Pbo,Placebo,USA,9/7/12,-5,75,ALT,Alanine Aminotransfera,CHEMISTRY,7,U/L,6,32,7,7,U/L,6,32,NORMAL,NA,5,28,2012-10-10T11:30,29,,,,,,,,,,,,,,,,,,,lb,Alanine Aminotransfera,7,U/L
WEEK 6,CDISCPILOT01,LB,01-703-1299,1299,9/12/12,3/13/13,9/12/12,3/13/13,NA,3/27/13,NA,NA,703,81,YEARS,F,WHITE,NOT HISPANIC OR LATINO,Pbo,Placebo,Pbo,Placebo,USA,9/7/12,-5,105,ALT,Alanine Aminotransfera,CHEMISTRY,13,U/L,6,32,13,13,U/L,6,32,NORMAL,NA,7,42,2012-10-24T13:45,43,,,,,,,,,,,,,,,,,,,lb,Alanine Aminotransfera,13,U/L
WEEK 8,CDISCPILOT01,LB,01-703-1299,1299,9/12/12,3/13/13,9/12/12,3/13/13,NA,3/27/13,NA,NA,703,81,YEARS,F,WHITE,NOT HISPANIC OR LATINO,Pbo,Placebo,Pbo,Placebo,USA,9/7/12,-5,135,ALT,Alanine Aminotransfera,CHEMISTRY,11,U/L,6,32,11,11,U/L,6,32,NORMAL,NA,8,56,2012-11-07T11:25,57,,,,,,,,,,,,,,,,,,,lb,Alanine Aminotransfera,11,U/L
WEEK 12,CDISCPILOT01,LB,01-703-1299,1299,9/12/12,3/13/13,9/12/12,3/13/13,NA,3/27/13,NA,NA,703,81,YEARS,F,WHITE,NOT HISPANIC OR LATINO,Pbo,Placebo,Pbo,Placebo,USA,9/7/12,-5,165,ALT,Alanine Aminotransfera,CHEMISTRY,11,U/L,6,32,11,11,U/L,6,32,NORMAL,NA,9,84,2012-12-05T15:00,85,,,,,,,,,,,,,,,,,,,lb,Alanine Aminotransfera,11,U/L
WEEK 16,CDISCPILOT01,LB,01-703-1299,1299,9/12/12,3/13/13,9/12/12,3/13/13,NA,3/27/13,NA,NA,703,81,YEARS,F,WHITE,NOT HISPANIC OR LATINO,Pbo,Placebo,Pbo,Placebo,USA,9/7/12,-5,200,ALT,Alanine Aminotransfera,CHEMISTRY,10,U/L,6,32,10,10,U/L,6,32,NORMAL,NA,10,112,2013-01-02T11:30,113,,,,,,,,,,,,,,,,,,,lb,Alanine Aminotransfera,10,U/L
WEEK 20,CDISCPILOT01,LB,01-703-1299,1299,9/12/12,3/13/13,9/12/12,3/13/13,NA,3/27/13,NA,NA,703,81,YEARS,F,WHITE,NOT HISPANIC OR LATINO,Pbo,Placebo,Pbo,Placebo,USA,9/7/12,-5,230,ALT,Alanine Aminotransfera,CHEMISTRY,12,U/L,6,32,12,12,U/L,6,32,NORMAL,NA,11,140,2013-01-30T10:35,141,,,,,,,,,,,,,,,,,,,lb,Alanine Aminotransfera,12,U/L
WEEK 24,CDISCPILOT01,LB,01-703-1299,1299,9/12/12,3/13/13,9/12/12,3/13/13,NA,3/27/13,NA,NA,703,81,YEARS,F,WHITE,NOT HISPANIC OR LATINO,Pbo,Placebo,Pbo,Placebo,USA,9/7/12,-5,260,ALT,Alanine Aminotransfera,CHEMISTRY,11,U/L,6,32,11,11,U/L,6,32,NORMAL,NA,12,168,2013-03-01T13:40,171,,,,,,,,,,,,,,,,,,,lb,Alanine Aminotransfera,11,U/L
WEEK 26,CDISCPILOT01,LB,01-703-1299,1299,9/12/12,3/13/13,9/12/12,3/13/13,NA,3/27/13,NA,NA,703,81,YEARS,F,WHITE,NOT HISPANIC OR LATINO,Pbo,Placebo,Pbo,Placebo,USA,9/7/12,-5,295,ALT,Alanine Aminotransfera,CHEMISTRY,11,U/L,6,32,11,11,U/L,6,32,NORMAL,NA,13,182,2013-03-13T11:40,183,,,,,,,,,,,,,,,,,,,lb,Alanine Aminotransfera,11,U/L
SCREENING 1,CDISCPILOT01,LB,01-703-1335,1335,3/17/14,5/24/14,3/17/14,5/7/14,NA,2014-05-24T12:15,NA,NA,703,67,YEARS,F,BLACK OR AFRICAN AMERICAN,NOT HISPANIC OR LATINO,Xan_Hi,Xanomeline High Dose,Xan_Hi,Xanomeline High Dose,USA,2/28/14,-17,3,ALT,Alanine Aminotransfera,CHEMISTRY,22,U/L,6,34,22,22,U/L,6,34,NORMAL,Y,1,-7,2013-12-28T16:10,-79,,,,,,,,,,,,,,,,,,,lb,Alanine Aminotransfera,22,U/L
UNSCHEDULED 1,CDISCPILOT01,LB,01-703-1335,1335,3/17/14,5/24/14,3/17/14,5/7/14,NA,2014-05-24T12:15,NA,NA,703,67,YEARS,F,BLACK OR AFRICAN AMERICAN,NOT HISPANIC OR LATINO,Xan_Hi,Xanomeline High Dose,Xan_Hi,Xanomeline High Dose,USA,2/28/14,-17,23,ALT,Alanine Aminotransfera,CHEMISTRY,24,U/L,6,34,24,24,U/L,6,34,NORMAL,NA,1.1,NA,2014-02-21T13:00,-24,,,,,,,,,,,,,,,,,,,lb,Alanine Aminotransfera,24,U/L
WEEK 2,CDISCPILOT01,LB,01-703-1335,1335,3/17/14,5/24/14,3/17/14,5/7/14,NA,2014-05-24T12:15,NA,NA,703,67,YEARS,F,BLACK OR AFRICAN AMERICAN,NOT HISPANIC OR LATINO,Xan_Hi,Xanomeline High Dose,Xan_Hi,Xanomeline High Dose,USA,2/28/14,-17,60,ALT,Alanine Aminotransfera,CHEMISTRY,15,U/L,6,34,15,15,U/L,6,34,NORMAL,NA,4,14,2014-03-31T10:00,15,,,,,,,,,,,,,,,,,,,lb,Alanine Aminotransfera,15,U/L
WEEK 4,CDISCPILOT01,LB,01-703-1335,1335,3/17/14,5/24/14,3/17/14,5/7/14,NA,2014-05-24T12:15,NA,NA,703,67,YEARS,F,BLACK OR AFRICAN AMERICAN,NOT HISPANIC OR LATINO,Xan_Hi,Xanomeline High Dose,Xan_Hi,Xanomeline High Dose,USA,2/28/14,-17,90,ALT,Alanine Aminotransfera,CHEMISTRY,25,U/L,6,34,25,25,U/L,6,34,NORMAL,NA,5,28,2014-04-13T10:00,28,,,,,,,,,,,,,,,,,,,lb,Alanine Aminotransfera,25,U/L
WEEK 6,CDISCPILOT01,LB,01-703-1335,1335,3/17/14,5/24/14,3/17/14,5/7/14,NA,2014-05-24T12:15,NA,NA,703,67,YEARS,F,BLACK OR AFRICAN AMERICAN,NOT HISPANIC OR LATINO,Xan_Hi,Xanomeline High Dose,Xan_Hi,Xanomeline High Dose,USA,2/28/14,-17,125,ALT,Alanine Aminotransfera,CHEMISTRY,17,U/L,6,34,17,17,U/L,6,34,NORMAL,NA,7,42,2014-05-24T12:15,69,,,,,,,,,,,,,,,,,,,lb,Alanine Aminotransfera,17,U/L
SCREENING 1,CDISCPILOT01,LB,01-703-1379,1379,9/22/13,3/21/14,9/22/13,3/21/14,NA,2014-03-21T10:55,NA,NA,703,81,YEARS,F,BLACK OR AFRICAN AMERICAN,NOT HISPANIC OR LATINO,Xan_Lo,Xanomeline Low Dose,Xan_Lo,Xanomeline Low Dose,USA,9/12/13,-10,3,ALT,Alanine Aminotransfera,CHEMISTRY,9,U/L,6,32,9,9,U/L,6,32,NORMAL,Y,1,-7,2013-09-12T17:00,-10,,,,,,,,,,,,,,,,,,,lb,Alanine Aminotransfera,9,U/L
WEEK 2,CDISCPILOT01,LB,01-703-1379,1379,9/22/13,3/21/14,9/22/13,3/21/14,NA,2014-03-21T10:55,NA,NA,703,81,YEARS,F,BLACK OR AFRICAN AMERICAN,NOT HISPANIC OR LATINO,Xan_Lo,Xanomeline Low Dose,Xan_Lo,Xanomeline Low Dose,USA,9/12/13,-10,40,ALT,Alanine Aminotransfera,CHEMISTRY,5,U/L,6,32,5,5,U/L,6,32,LOW,NA,4,14,2013-10-07T10:50,16,,,,,,,,,,,,,,,,,,,lb,Alanine Aminotransfera,5,U/L
WEEK 4,CDISCPILOT01,LB,01-703-1379,1379,9/22/13,3/21/14,9/22/13,3/21/14,NA,2014-03-21T10:55,NA,NA,703,81,YEARS,F,BLACK OR AFRICAN AMERICAN,NOT HISPANIC OR LATINO,Xan_Lo,Xanomeline Low Dose,Xan_Lo,Xanomeline Low Dose,USA,9/12/13,-10,70,ALT,Alanine Aminotransfera,CHEMISTRY,7,U/L,6,32,7,7,U/L,6,32,NORMAL,NA,5,28,2013-10-19T13:15,28,,,,,,,,,,,,,,,,,,,lb,Alanine Aminotransfera,7,U/L
WEEK 6,CDISCPILOT01,LB,01-703-1379,1379,9/22/13,3/21/14,9/22/13,3/21/14,NA,2014-03-21T10:55,NA,NA,703,81,YEARS,F,BLACK OR AFRICAN AMERICAN,NOT HISPANIC OR LATINO,Xan_Lo,Xanomeline Low Dose,Xan_Lo,Xanomeline Low Dose,USA,9/12/13,-10,100,ALT,Alanine Aminotransfera,CHEMISTRY,6,U/L,6,32,6,6,U/L,6,32,NORMAL,NA,7,42,2013-11-08T11:40,48,,,,,,,,,,,,,,,,,,,lb,Alanine Aminotransfera,6,U/L
WEEK 8,CDISCPILOT01,LB,01-703-1379,1379,9/22/13,3/21/14,9/22/13,3/21/14,NA,2014-03-21T10:55,NA,NA,703,81,YEARS,F,BLACK OR AFRICAN AMERICAN,NOT HISPANIC OR LATINO,Xan_Lo,Xanomeline Low Dose,Xan_Lo,Xanomeline Low Dose,USA,9/12/13,-10,130,ALT,Alanine Aminotransfera,CHEMISTRY,6,U/L,6,32,6,6,U/L,6,32,NORMAL,NA,8,56,2013-11-17T13:05,57,,,,,,,,,,,,,,,,,,,lb,Alanine Aminotransfera,6,U/L
WEEK 12,CDISCPILOT01,LB,01-703-1379,1379,9/22/13,3/21/14,9/22/13,3/21/14,NA,2014-03-21T10:55,NA,NA,703,81,YEARS,F,BLACK OR AFRICAN AMERICAN,NOT HISPANIC OR LATINO,Xan_Lo,Xanomeline Low Dose,Xan_Lo,Xanomeline Low Dose,USA,9/12/13,-10,160,ALT,Alanine Aminotransfera,CHEMISTRY,10,U/L,6,32,10,10,U/L,6,32,NORMAL,NA,9,84,2013-12-15T14:30,85,,,,,,,,,,,,,,,,,,,lb,Alanine Aminotransfera,10,U/L
WEEK 16,CDISCPILOT01,LB,01-703-1379,1379,9/22/13,3/21/14,9/22/13,3/21/14,NA,2014-03-21T10:55,NA,NA,703,81,YEARS,F,BLACK OR AFRICAN AMERICAN,NOT HISPANIC OR LATINO,Xan_Lo,Xanomeline Low Dose,Xan_Lo,Xanomeline Low Dose,USA,9/12/13,-10,195,ALT,Alanine Aminotransfera,CHEMISTRY,6,U/L,6,32,6,6,U/L,6,32,NORMAL,NA,10,112,2014-01-11T12:50,112,,,,,,,,,,,,,,,,,,,lb,Alanine Aminotransfera,6,U/L
WEEK 20,CDISCPILOT01,LB,01-703-1379,1379,9/22/13,3/21/14,9/22/13,3/21/14,NA,2014-03-21T10:55,NA,NA,703,81,YEARS,F,BLACK OR AFRICAN AMERICAN,NOT HISPANIC OR LATINO,Xan_Lo,Xanomeline Low Dose,Xan_Lo,Xanomeline Low Dose,USA,9/12/13,-10,225,ALT,Alanine Aminotransfera,CHEMISTRY,24,U/L,6,32,24,24,U/L,6,32,NORMAL,NA,11,140,2014-02-09T10:30,141,,,,,,,,,,,,,,,,,,,lb,Alanine Aminotransfera,24,U/L
WEEK 24,CDISCPILOT01,LB,01-703-1379,1379,9/22/13,3/21/14,9/22/13,3/21/14,NA,2014-03-21T10:55,NA,NA,703,81,YEARS,F,BLACK OR AFRICAN AMERICAN,NOT HISPANIC OR LATINO,Xan_Lo,Xanomeline Low Dose,Xan_Lo,Xanomeline Low Dose,USA,9/12/13,-10,255,ALT,Alanine Aminotransfera,CHEMISTRY,20,U/L,6,32,20,20,U/L,6,32,NORMAL,NA,12,168,2014-03-08T11:30,168,,,,,,,,,,,,,,,,,,,lb,Alanine Aminotransfera,20,U/L
WEEK 26,CDISCPILOT01,LB,01-703-1379,1379,9/22/13,3/21/14,9/22/13,3/21/14,NA,2014-03-21T10:55,NA,NA,703,81,YEARS,F,BLACK OR AFRICAN AMERICAN,NOT HISPANIC OR LATINO,Xan_Lo,Xanomeline Low Dose,Xan_Lo,Xanomeline Low Dose,USA,9/12/13,-10,290,ALT,Alanine Aminotransfera,CHEMISTRY,20,U/L,6,32,20,20,U/L,6,32,NORMAL,NA,13,182,2014-03-21T10:55,181,,,,,,,,,,,,,,,,,,,lb,Alanine Aminotransfera,20,U/L
SCREENING 1,CDISCPILOT01,LB,01-703-1403,1403,12/12/12,12/19/12,12/12/12,12/13/12,NA,1/8/13,NA,NA,703,67,YEARS,M,WHITE,NOT HISPANIC OR LATINO,Xan_Hi,Xanomeline High Dose,Xan_Lo,Xanomeline Low Dose,USA,12/5/12,-7,3,ALT,Alanine Aminotransfera,CHEMISTRY,40,U/L,6,43,40,40,U/L,6,43,NORMAL,Y,1,-7,2012-11-28T10:35,-14,,,,,,,,,,,,,,,,,,,lb,Alanine Aminotransfera,40,U/L
WEEK 2,CDISCPILOT01,LB,01-703-1403,1403,12/12/12,12/19/12,12/12/12,12/13/12,NA,1/8/13,NA,NA,703,67,YEARS,M,WHITE,NOT HISPANIC OR LATINO,Xan_Hi,Xanomeline High Dose,Xan_Lo,Xanomeline Low Dose,USA,12/5/12,-7,40,ALT,Alanine Aminotransfera,CHEMISTRY,19,U/L,6,43,19,19,U/L,6,43,NORMAL,NA,4,14,2012-12-19T10:15,8,,,,,,,,,,,,,,,,,,,lb,Alanine Aminotransfera,19,U/L
SCREENING 1,CDISCPILOT01,LB,01-703-1439,1439,3/12/14,9/11/14,3/12/14,9/11/14,NA,2014-09-11T12:40,NA,NA,703,76,YEARS,F,WHITE,NOT HISPANIC OR LATINO,Xan_Hi,Xanomeline High Dose,Xan_Hi,Xanomeline High Dose,USA,3/4/14,-8,3,ALT,Alanine Aminotransfera,CHEMISTRY,23,U/L,6,32,23,23,U/L,6,32,NORMAL,Y,1,-7,2014-02-27T10:45,-13,,,,,,,,,,,,,,,,,,,lb,Alanine Aminotransfera,23,U/L
WEEK 2,CDISCPILOT01,LB,01-703-1439,1439,3/12/14,9/11/14,3/12/14,9/11/14,NA,2014-09-11T12:40,NA,NA,703,76,YEARS,F,WHITE,NOT HISPANIC OR LATINO,Xan_Hi,Xanomeline High Dose,Xan_Hi,Xanomeline High Dose,USA,3/4/14,-8,40,ALT,Alanine Aminotransfera,CHEMISTRY,24,U/L,6,32,24,24,U/L,6,32,NORMAL,NA,4,14,2014-03-26T12:40,15,,,,,,,,,,,,,,,,,,,lb,Alanine Aminotransfera,24,U/L
WEEK 4,CDISCPILOT01,LB,01-703-1439,1439,3/12/14,9/11/14,3/12/14,9/11/14,NA,2014-09-11T12:40,NA,NA,703,76,YEARS,F,WHITE,NOT HISPANIC OR LATINO,Xan_Hi,Xanomeline High Dose,Xan_Hi,Xanomeline High Dose,USA,3/4/14,-8,75,ALT,Alanine Aminotransfera,CHEMISTRY,24,U/L,6,32,24,24,U/L,6,32,NORMAL,NA,5,28,2014-04-08T11:00,28,,,,,,,,,,,,,,,,,,,lb,Alanine Aminotransfera,24,U/L
WEEK 6,CDISCPILOT01,LB,01-703-1439,1439,3/12/14,9/11/14,3/12/14,9/11/14,NA,2014-09-11T12:40,NA,NA,703,76,YEARS,F,WHITE,NOT HISPANIC OR LATINO,Xan_Hi,Xanomeline High Dose,Xan_Hi,Xanomeline High Dose,USA,3/4/14,-8,105,ALT,Alanine Aminotransfera,CHEMISTRY,27,U/L,6,32,27,27,U/L,6,32,NORMAL,NA,7,42,2014-04-21T10:30,41,,,,,,,,,,,,,,,,,,,lb,Alanine Aminotransfera,27,U/L
WEEK 8,CDISCPILOT01,LB,01-703-1439,1439,3/12/14,9/11/14,3/12/14,9/11/14,NA,2014-09-11T12:40,NA,NA,703,76,YEARS,F,WHITE,NOT HISPANIC OR LATINO,Xan_Hi,Xanomeline High Dose,Xan_Hi,Xanomeline High Dose,USA,3/4/14,-8,135,ALT,Alanine Aminotransfera,CHEMISTRY,18,U/L,6,32,18,18,U/L,6,32,NORMAL,NA,8,56,2014-05-05T10:30,55,,,,,,,,,,,,,,,,,,,lb,Alanine Aminotransfera,18,U/L
WEEK 12,CDISCPILOT01,LB,01-703-1439,1439,3/12/14,9/11/14,3/12/14,9/11/14,NA,2014-09-11T12:40,NA,NA,703,76,YEARS,F,WHITE,NOT HISPANIC OR LATINO,Xan_Hi,Xanomeline High Dose,Xan_Hi,Xanomeline High Dose,USA,3/4/14,-8,165,ALT,Alanine Aminotransfera,CHEMISTRY,27,U/L,6,32,27,27,U/L,6,32,NORMAL,NA,9,84,2014-06-02T15:10,83,,,,,,,,,,,,,,,,,,,lb,Alanine Aminotransfera,27,U/L
WEEK 16,CDISCPILOT01,LB,01-703-1439,1439,3/12/14,9/11/14,3/12/14,9/11/14,NA,2014-09-11T12:40,NA,NA,703,76,YEARS,F,WHITE,NOT HISPANIC OR LATINO,Xan_Hi,Xanomeline High Dose,Xan_Hi,Xanomeline High Dose,USA,3/4/14,-8,200,ALT,Alanine Aminotransfera,CHEMISTRY,23,U/L,6,32,23,23,U/L,6,32,NORMAL,NA,10,112,2014-06-30T10:45,111,,,,,,,,,,,,,,,,,,,lb,Alanine Aminotransfera,23,U/L
WEEK 20,CDISCPILOT01,LB,01-703-1439,1439,3/12/14,9/11/14,3/12/14,9/11/14,NA,2014-09-11T12:40,NA,NA,703,76,YEARS,F,WHITE,NOT HISPANIC OR LATINO,Xan_Hi,Xanomeline High Dose,Xan_Hi,Xanomeline High Dose,USA,3/4/14,-8,230,ALT,Alanine Aminotransfera,CHEMISTRY,24,U/L,6,32,24,24,U/L,6,32,NORMAL,NA,11,140,2014-07-29T09:00,140,,,,,,,,,,,,,,,,,,,lb,Alanine Aminotransfera,24,U/L
WEEK 24,CDISCPILOT01,LB,01-703-1439,1439,3/12/14,9/11/14,3/12/14,9/11/14,NA,2014-09-11T12:40,NA,NA,703,76,YEARS,F,WHITE,NOT HISPANIC OR LATINO,Xan_Hi,Xanomeline High Dose,Xan_Hi,Xanomeline High Dose,USA,3/4/14,-8,262,ALT,Alanine Aminotransfera,CHEMISTRY,24,U/L,6,32,24,24,U/L,6,32,NORMAL,NA,12,168,2014-08-28T11:15,170,,,,,,,,,,,,,,,,,,,lb,Alanine Aminotransfera,24,U/L
WEEK 26,CDISCPILOT01,LB,01-703-1439,1439,3/12/14,9/11/14,3/12/14,9/11/14,NA,2014-09-11T12:40,NA,NA,703,76,YEARS,F,WHITE,NOT HISPANIC OR LATINO,Xan_Hi,Xanomeline High Dose,Xan_Hi,Xanomeline High Dose,USA,3/4/14,-8,299,ALT,Alanine Aminotransfera,CHEMISTRY,21,U/L,6,32,21,21,U/L,6,32,NORMAL,NA,13,182,2014-09-11T12:40,184,,,,,,,,,,,,,,,,,,,lb,Alanine Aminotransfera,21,U/L
SCREENING 1,CDISCPILOT01,LB,01-704-1008,1008,1/13/13,2/25/13,1/13/13,2/21/13,NA,2013-02-25T11:00,NA,NA,704,76,YEARS,F,WHITE,NOT HISPANIC OR LATINO,Xan_Hi,Xanomeline High Dose,Xan_Hi,Xanomeline High Dose,USA,1/6/13,-7,3,ALT,Alanine Aminotransfera,CHEMISTRY,16,U/L,6,32,16,16,U/L,6,32,NORMAL,Y,1,-7,2012-11-25T13:05,-49,,,,,,,,,,,,,,,,,,,lb,Alanine Aminotransfera,16,U/L
UNSCHEDULED 1,CDISCPILOT01,LB,01-704-1008,1008,1/13/13,2/25/13,1/13/13,2/21/13,NA,2013-02-25T11:00,NA,NA,704,76,YEARS,F,WHITE,NOT HISPANIC OR LATINO,Xan_Hi,Xanomeline High Dose,Xan_Hi,Xanomeline High Dose,USA,1/6/13,-7,40,ALT,Alanine Aminotransfera,CHEMISTRY,16,U/L,6,32,16,16,U/L,6,32,NORMAL,NA,1.1,NA,2013-01-06T14:35,-7,,,,,,,,,,,,,,,,,,,lb,Alanine Aminotransfera,16,U/L
WEEK 2,CDISCPILOT01,LB,01-704-1008,1008,1/13/13,2/25/13,1/13/13,2/21/13,NA,2013-02-25T11:00,NA,NA,704,76,YEARS,F,WHITE,NOT HISPANIC OR LATINO,Xan_Hi,Xanomeline High Dose,Xan_Hi,Xanomeline High Dose,USA,1/6/13,-7,77,ALT,Alanine Aminotransfera,CHEMISTRY,15,U/L,6,32,15,15,U/L,6,32,NORMAL,NA,4,14,2013-01-28T13:40,16,,,,,,,,,,,,,,,,,,,lb,Alanine Aminotransfera,15,U/L
WEEK 4,CDISCPILOT01,LB,01-704-1008,1008,1/13/13,2/25/13,1/13/13,2/21/13,NA,2013-02-25T11:00,NA,NA,704,76,YEARS,F,WHITE,NOT HISPANIC OR LATINO,Xan_Hi,Xanomeline High Dose,Xan_Hi,Xanomeline High Dose,USA,1/6/13,-7,112,ALT,Alanine Aminotransfera,CHEMISTRY,13,U/L,6,32,13,13,U/L,6,32,NORMAL,NA,5,28,2013-02-09T09:10,28,,,,,,,,,,,,,,,,,,,lb,Alanine Aminotransfera,13,U/L
WEEK 6,CDISCPILOT01,LB,01-704-1008,1008,1/13/13,2/25/13,1/13/13,2/21/13,NA,2013-02-25T11:00,NA,NA,704,76,YEARS,F,WHITE,NOT HISPANIC OR LATINO,Xan_Hi,Xanomeline High Dose,Xan_Hi,Xanomeline High Dose,USA,1/6/13,-7,142,ALT,Alanine Aminotransfera,CHEMISTRY,25,U/L,6,32,25,25,U/L,6,32,NORMAL,NA,7,42,2013-02-25T11:00,44,,,,,,,,,,,,,,,,,,,lb,Alanine Aminotransfera,25,U/L
SCREENING 1,CDISCPILOT01,LB,01-704-1009,1009,8/27/13,10/2/13,8/27/13,9/25/13,NA,10/2/13,NA,NA,704,83,YEARS,M,WHITE,NOT HISPANIC OR LATINO,Xan_Lo,Xanomeline Low Dose,Xan_Lo,Xanomeline Low Dose,USA,8/20/13,-7,3,ALT,Alanine Aminotransfera,CHEMISTRY,24,U/L,6,35,24,24,U/L,6,35,NORMAL,Y,1,-7,2013-08-20T08:30,-7,,,,,,,,,,,,,,,,,,,lb,Alanine Aminotransfera,24,U/L
WEEK 2,CDISCPILOT01,LB,01-704-1009,1009,8/27/13,10/2/13,8/27/13,9/25/13,NA,10/2/13,NA,NA,704,83,YEARS,M,WHITE,NOT HISPANIC OR LATINO,Xan_Lo,Xanomeline Low Dose,Xan_Lo,Xanomeline Low Dose,USA,8/20/13,-7,37,ALT,Alanine Aminotransfera,CHEMISTRY,39,U/L,6,35,39,39,U/L,6,35,HIGH,NA,4,14,2013-09-14T15:00,19,,,,,,,,,,,,,,,,,,,lb,Alanine Aminotransfera,39,U/L
SCREENING 1,CDISCPILOT01,LB,01-704-1010,1010,2/21/14,7/9/14,2/21/14,7/8/14,NA,2014-07-09T11:00,NA,NA,704,80,YEARS,M,WHITE,NOT HISPANIC OR LATINO,Pbo,Placebo,Pbo,Placebo,USA,2/8/14,-13,3,ALT,Alanine Aminotransfera,CHEMISTRY,9,U/L,6,35,9,9,U/L,6,35,NORMAL,Y,1,-7,2014-02-07T14:45,-14,,,,,,,,,,,,,,,,,,,lb,Alanine Aminotransfera,9,U/L
WEEK 2,CDISCPILOT01,LB,01-704-1010,1010,2/21/14,7/9/14,2/21/14,7/8/14,NA,2014-07-09T11:00,NA,NA,704,80,YEARS,M,WHITE,NOT HISPANIC OR LATINO,Pbo,Placebo,Pbo,Placebo,USA,2/8/14,-13,40,ALT,Alanine Aminotransfera,CHEMISTRY,6,U/L,6,35,6,6,U/L,6,35,NORMAL,NA,4,14,2014-03-08T09:00,16,,,,,,,,,,,,,,,,,,,lb,Alanine Aminotransfera,6,U/L
WEEK 4,CDISCPILOT01,LB,01-704-1010,1010,2/21/14,7/9/14,2/21/14,7/8/14,NA,2014-07-09T11:00,NA,NA,704,80,YEARS,M,WHITE,NOT HISPANIC OR LATINO,Pbo,Placebo,Pbo,Placebo,USA,2/8/14,-13,75,ALT,Alanine Aminotransfera,CHEMISTRY,14,U/L,6,35,14,14,U/L,6,35,NORMAL,NA,5,28,2014-03-23T14:00,31,,,,,,,,,,,,,,,,,,,lb,Alanine Aminotransfera,14,U/L
WEEK 6,CDISCPILOT01,LB,01-704-1010,1010,2/21/14,7/9/14,2/21/14,7/8/14,NA,2014-07-09T11:00,NA,NA,704,80,YEARS,M,WHITE,NOT HISPANIC OR LATINO,Pbo,Placebo,Pbo,Placebo,USA,2/8/14,-13,105,ALT,Alanine Aminotransfera,CHEMISTRY,7,U/L,6,35,7,7,U/L,6,35,NORMAL,NA,7,42,2014-04-11T09:45,50,,,,,,,,,,,,,,,,,,,lb,Alanine Aminotransfera,7,U/L
WEEK 8,CDISCPILOT01,LB,01-704-1010,1010,2/21/14,7/9/14,2/21/14,7/8/14,NA,2014-07-09T11:00,NA,NA,704,80,YEARS,M,WHITE,NOT HISPANIC OR LATINO,Pbo,Placebo,Pbo,Placebo,USA,2/8/14,-13,135,ALT,Alanine Aminotransfera,CHEMISTRY,7,U/L,6,35,7,7,U/L,6,35,NORMAL,NA,8,56,2014-04-24T11:15,63,,,,,,,,,,,,,,,,,,,lb,Alanine Aminotransfera,7,U/L
UNSCHEDULED 9,CDISCPILOT01,LB,01-704-1010,1010,2/21/14,7/9/14,2/21/14,7/8/14,NA,2014-07-09T11:00,NA,NA,704,80,YEARS,M,WHITE,NOT HISPANIC OR LATINO,Pbo,Placebo,Pbo,Placebo,USA,2/8/14,-13,165,ALT,Alanine Aminotransfera,CHEMISTRY,9,U/L,6,35,9,9,U/L,6,35,NORMAL,NA,9.2,NA,2014-05-30T10:25,99,,,,,,,,,,,,,,,,,,,lb,Alanine Aminotransfera,9,U/L
WEEK 16,CDISCPILOT01,LB,01-704-1010,1010,2/21/14,7/9/14,2/21/14,7/8/14,NA,2014-07-09T11:00,NA,NA,704,80,YEARS,M,WHITE,NOT HISPANIC OR LATINO,Pbo,Placebo,Pbo,Placebo,USA,2/8/14,-13,200,ALT,Alanine Aminotransfera,CHEMISTRY,8,U/L,6,35,8,8,U/L,6,35,NORMAL,NA,10,112,2014-06-13T12:00,113,,,,,,,,,,,,,,,,,,,lb,Alanine Aminotransfera,8,U/L
WEEK 20,CDISCPILOT01,LB,01-704-1010,1010,2/21/14,7/9/14,2/21/14,7/8/14,NA,2014-07-09T11:00,NA,NA,704,80,YEARS,M,WHITE,NOT HISPANIC OR LATINO,Pbo,Placebo,Pbo,Placebo,USA,2/8/14,-13,230,ALT,Alanine Aminotransfera,CHEMISTRY,12,U/L,6,35,12,12,U/L,6,35,NORMAL,NA,11,140,2014-07-09T11:00,139,,,,,,,,,,,,,,,,,,,lb,Alanine Aminotransfera,12,U/L
SCREENING 1,CDISCPILOT01,LB,01-704-1017,1017,10/6/13,11/24/13,10/6/13,11/18/13,NA,12/6/13,NA,NA,704,77,YEARS,M,WHITE,NOT HISPANIC OR LATINO,Xan_Hi,Xanomeline High Dose,Xan_Hi,Xanomeline High Dose,USA,9/20/13,-16,3,ALT,Alanine Aminotransfera,CHEMISTRY,10,U/L,6,35,10,10,U/L,6,35,NORMAL,Y,1,-7,2013-09-20T12:30,-16,,,,,,,,,,,,,,,,,,,lb,Alanine Aminotransfera,10,U/L
WEEK 2,CDISCPILOT01,LB,01-704-1017,1017,10/6/13,11/24/13,10/6/13,11/18/13,NA,12/6/13,NA,NA,704,77,YEARS,M,WHITE,NOT HISPANIC OR LATINO,Xan_Hi,Xanomeline High Dose,Xan_Hi,Xanomeline High Dose,USA,9/20/13,-16,40,ALT,Alanine Aminotransfera,CHEMISTRY,11,U/L,6,35,11,11,U/L,6,35,NORMAL,NA,4,14,2013-10-19T09:45,14,,,,,,,,,,,,,,,,,,,lb,Alanine Aminotransfera,11,U/L
WEEK 4,CDISCPILOT01,LB,01-704-1017,1017,10/6/13,11/24/13,10/6/13,11/18/13,NA,12/6/13,NA,NA,704,77,YEARS,M,WHITE,NOT HISPANIC OR LATINO,Xan_Hi,Xanomeline High Dose,Xan_Hi,Xanomeline High Dose,USA,9/20/13,-16,75,ALT,Alanine Aminotransfera,CHEMISTRY,10,U/L,6,35,10,10,U/L,6,35,NORMAL,NA,5,28,2013-11-01T10:45,27,,,,,,,,,,,,,,,,,,,lb,Alanine Aminotransfera,10,U/L
SCREENING 1,CDISCPILOT01,LB,01-704-1025,1025,9/27/13,11/29/13,9/27/13,10/24/13,NA,2013-11-29T12:00,NA,NA,704,81,YEARS,F,WHITE,NOT HISPANIC OR LATINO,Xan_Lo,Xanomeline Low Dose,Xan_Lo,Xanomeline Low Dose,USA,9/18/13,-9,3,ALT,Alanine Aminotransfera,CHEMISTRY,19,U/L,6,32,19,19,U/L,6,32,NORMAL,Y,1,-7,2013-09-13T09:15,-14,,,,,,,,,,,,,,,,,,,lb,Alanine Aminotransfera,19,U/L
WEEK 2,CDISCPILOT01,LB,01-704-1025,1025,9/27/13,11/29/13,9/27/13,10/24/13,NA,2013-11-29T12:00,NA,NA,704,81,YEARS,F,WHITE,NOT HISPANIC OR LATINO,Xan_Lo,Xanomeline Low Dose,Xan_Lo,Xanomeline Low Dose,USA,9/18/13,-9,40,ALT,Alanine Aminotransfera,CHEMISTRY,23,U/L,6,32,23,23,U/L,6,32,NORMAL,NA,4,14,2013-10-11T15:20,15,,,,,,,,,,,,,,,,,,,lb,Alanine Aminotransfera,23,U/L
WEEK 4,CDISCPILOT01,LB,01-704-1025,1025,9/27/13,11/29/13,9/27/13,10/24/13,NA,2013-11-29T12:00,NA,NA,704,81,YEARS,F,WHITE,NOT HISPANIC OR LATINO,Xan_Lo,Xanomeline Low Dose,Xan_Lo,Xanomeline Low Dose,USA,9/18/13,-9,75,ALT,Alanine Aminotransfera,CHEMISTRY,22,U/L,6,32,22,22,U/L,6,32,NORMAL,NA,5,28,2013-10-25T10:30,29,,,,,,,,,,,,,,,,,,,lb,Alanine Aminotransfera,22,U/L
AMBUL ECG REM,CDISCPILOT01,LB,01-704-1025,1025,9/27/13,11/29/13,9/27/13,10/24/13,NA,2013-11-29T12:00,NA,NA,704,81,YEARS,F,WHITE,NOT HISPANIC OR LATINO,Xan_Lo,Xanomeline Low Dose,Xan_Lo,Xanomeline Low Dose,USA,9/18/13,-9,105,ALT,Alanine Aminotransfera,CHEMISTRY,15,U/L,6,32,15,15,U/L,6,32,NORMAL,NA,6,30,2013-11-29T12:00,64,,,,,,,,,,,,,,,,,,,lb,Alanine Aminotransfera,15,U/L
SCREENING 1,CDISCPILOT01,LB,01-704-1065,1065,10/24/13,12/24/13,10/24/13,12/22/13,NA,2/17/14,NA,NA,704,75,YEARS,M,WHITE,NOT HISPANIC OR LATINO,Xan_Hi,Xanomeline High Dose,Xan_Hi,Xanomeline High Dose,USA,10/17/13,-7,3,ALT,Alanine Aminotransfera,CHEMISTRY,16,U/L,6,35,16,16,U/L,6,35,NORMAL,Y,1,-7,2013-10-17T10:30,-7,,,,,,,,,,,,,,,,,,,lb,Alanine Aminotransfera,16,U/L
WEEK 2,CDISCPILOT01,LB,01-704-1065,1065,10/24/13,12/24/13,10/24/13,12/22/13,NA,2/17/14,NA,NA,704,75,YEARS,M,WHITE,NOT HISPANIC OR LATINO,Xan_Hi,Xanomeline High Dose,Xan_Hi,Xanomeline High Dose,USA,10/17/13,-7,40,ALT,Alanine Aminotransfera,CHEMISTRY,14,U/L,6,35,14,14,U/L,6,35,NORMAL,NA,4,14,2013-11-07T08:40,15,,,,,,,,,,,,,,,,,,,lb,Alanine Aminotransfera,14,U/L
WEEK 4,CDISCPILOT01,LB,01-704-1065,1065,10/24/13,12/24/13,10/24/13,12/22/13,NA,2/17/14,NA,NA,704,75,YEARS,M,WHITE,NOT HISPANIC OR LATINO,Xan_Hi,Xanomeline High Dose,Xan_Hi,Xanomeline High Dose,USA,10/17/13,-7,75,ALT,Alanine Aminotransfera,CHEMISTRY,14,U/L,6,35,14,14,U/L,6,35,NORMAL,NA,5,28,2013-11-25T14:30,33,,,,,,,,,,,,,,,,,,,lb,Alanine Aminotransfera,14,U/L
WEEK 6,CDISCPILOT01,LB,01-704-1065,1065,10/24/13,12/24/13,10/24/13,12/22/13,NA,2/17/14,NA,NA,704,75,YEARS,M,WHITE,NOT HISPANIC OR LATINO,Xan_Hi,Xanomeline High Dose,Xan_Hi,Xanomeline High Dose,USA,10/17/13,-7,105,ALT,Alanine Aminotransfera,CHEMISTRY,20,U/L,6,35,20,20,U/L,6,35,NORMAL,NA,7,42,2013-12-06T12:10,44,,,,,,,,,,,,,,,,,,,lb,Alanine Aminotransfera,20,U/L
WEEK 8,CDISCPILOT01,LB,01-704-1065,1065,10/24/13,12/24/13,10/24/13,12/22/13,NA,2/17/14,NA,NA,704,75,YEARS,M,WHITE,NOT HISPANIC OR LATINO,Xan_Hi,Xanomeline High Dose,Xan_Hi,Xanomeline High Dose,USA,10/17/13,-7,135,ALT,Alanine Aminotransfera,CHEMISTRY,16,U/L,6,35,16,16,U/L,6,35,NORMAL,NA,8,56,2013-12-20T12:05,58,,,,,,,,,,,,,,,,,,,lb,Alanine Aminotransfera,16,U/L
WEEK 12,CDISCPILOT01,LB,01-704-1065,1065,10/24/13,12/24/13,10/24/13,12/22/13,NA,2/17/14,NA,NA,704,75,YEARS,M,WHITE,NOT HISPANIC OR LATINO,Xan_Hi,Xanomeline High Dose,Xan_Hi,Xanomeline High Dose,USA,10/17/13,-7,165,ALT,Alanine Aminotransfera,CHEMISTRY,14,U/L,6,35,14,14,U/L,6,35,NORMAL,NA,9,84,2013-12-24T11:45,62,,,,,,,,,,,,,,,,,,,lb,Alanine Aminotransfera,14,U/L
SCREENING 1,CDISCPILOT01,LB,01-704-1074,1074,1/22/14,3/31/14,1/22/14,3/20/14,NA,2014-03-31T10:30,NA,NA,704,80,YEARS,F,WHITE,NOT HISPANIC OR LATINO,Xan_Hi,Xanomeline High Dose,Xan_Hi,Xanomeline High Dose,USA,1/19/14,-3,3,ALT,Alanine Aminotransfera,CHEMISTRY,14,U/L,6,32,14,14,U/L,6,32,NORMAL,Y,1,-7,2014-01-15T09:00,-7,,,,,,,,,,,,,,,,,,,lb,Alanine Aminotransfera,14,U/L
WEEK 2,CDISCPILOT01,LB,01-704-1074,1074,1/22/14,3/31/14,1/22/14,3/20/14,NA,2014-03-31T10:30,NA,NA,704,80,YEARS,F,WHITE,NOT HISPANIC OR LATINO,Xan_Hi,Xanomeline High Dose,Xan_Hi,Xanomeline High Dose,USA,1/19/14,-3,40,ALT,Alanine Aminotransfera,CHEMISTRY,12,U/L,6,32,12,12,U/L,6,32,NORMAL,NA,4,14,2014-02-09T08:45,19,,,,,,,,,,,,,,,,,,,lb,Alanine Aminotransfera,12,U/L
WEEK 4,CDISCPILOT01,LB,01-704-1074,1074,1/22/14,3/31/14,1/22/14,3/20/14,NA,2014-03-31T10:30,NA,NA,704,80,YEARS,F,WHITE,NOT HISPANIC OR LATINO,Xan_Hi,Xanomeline High Dose,Xan_Hi,Xanomeline High Dose,USA,1/19/14,-3,55,ALT,Alanine Aminotransfera,CHEMISTRY,13,U/L,6,32,13,13,U/L,6,32,NORMAL,NA,5,28,2014-02-22T13:59,32,,,,,,,,,,,,,,,,,,,lb,Alanine Aminotransfera,13,U/L
WEEK 6,CDISCPILOT01,LB,01-704-1074,1074,1/22/14,3/31/14,1/22/14,3/20/14,NA,2014-03-31T10:30,NA,NA,704,80,YEARS,F,WHITE,NOT HISPANIC OR LATINO,Xan_Hi,Xanomeline High Dose,Xan_Hi,Xanomeline High Dose,USA,1/19/14,-3,85,ALT,Alanine Aminotransfera,CHEMISTRY,11,U/L,6,32,11,11,U/L,6,32,NORMAL,NA,7,42,2014-03-09T15:30,47,,,,,,,,,,,,,,,,,,,lb,Alanine Aminotransfera,11,U/L
WEEK 8,CDISCPILOT01,LB,01-704-1074,1074,1/22/14,3/31/14,1/22/14,3/20/14,NA,2014-03-31T10:30,NA,NA,704,80,YEARS,F,WHITE,NOT HISPANIC OR LATINO,Xan_Hi,Xanomeline High Dose,Xan_Hi,Xanomeline High Dose,USA,1/19/14,-3,115,ALT,Alanine Aminotransfera,CHEMISTRY,11,U/L,6,32,11,11,U/L,6,32,NORMAL,NA,8,56,2014-03-31T10:30,69,,,,,,,,,,,,,,,,,,,lb,Alanine Aminotransfera,11,U/L
SCREENING 1,CDISCPILOT01,LB,01-704-1093,1093,3/15/13,6/20/13,3/15/13,6/17/13,NA,12/25/13,NA,NA,704,79,YEARS,M,WHITE,NOT HISPANIC OR LATINO,Xan_Hi,Xanomeline High Dose,Xan_Hi,Xanomeline High Dose,USA,2/22/13,-21,3,ALT,Alanine Aminotransfera,CHEMISTRY,22,U/L,6,35,22,22,U/L,6,35,NORMAL,Y,1,-7,2013-01-31T12:55,-43,,,,,,,,,,,,,,,,,,,lb,Alanine Aminotransfera,22,U/L
UNSCHEDULED 1,CDISCPILOT01,LB,01-704-1093,1093,3/15/13,6/20/13,3/15/13,6/17/13,NA,12/25/13,NA,NA,704,79,YEARS,M,WHITE,NOT HISPANIC OR LATINO,Xan_Hi,Xanomeline High Dose,Xan_Hi,Xanomeline High Dose,USA,2/22/13,-21,40,ALT,Alanine Aminotransfera,CHEMISTRY,17,U/L,6,35,17,17,U/L,6,35,NORMAL,NA,1.1,NA,2013-02-22T14:25,-21,,,,,,,,,,,,,,,,,,,lb,Alanine Aminotransfera,17,U/L
UNSCHEDULED 1,CDISCPILOT01,LB,01-704-1093,1093,3/15/13,6/20/13,3/15/13,6/17/13,NA,12/25/13,NA,NA,704,79,YEARS,M,WHITE,NOT HISPANIC OR LATINO,Xan_Hi,Xanomeline High Dose,Xan_Hi,Xanomeline High Dose,USA,2/22/13,-21,77,ALT,Alanine Aminotransfera,CHEMISTRY,14,U/L,6,35,14,14,U/L,6,35,NORMAL,NA,1.2,NA,2013-03-02T08:07,-13,,,,,,,,,,,,,,,,,,,lb,Alanine Aminotransfera,14,U/L
WEEK 2,CDISCPILOT01,LB,01-704-1093,1093,3/15/13,6/20/13,3/15/13,6/17/13,NA,12/25/13,NA,NA,704,79,YEARS,M,WHITE,NOT HISPANIC OR LATINO,Xan_Hi,Xanomeline High Dose,Xan_Hi,Xanomeline High Dose,USA,2/22/13,-21,98,ALT,Alanine Aminotransfera,CHEMISTRY,26,U/L,6,35,26,26,U/L,6,35,NORMAL,NA,4,14,2013-03-30T11:35,16,,,,,,,,,,,,,,,,,,,lb,Alanine Aminotransfera,26,U/L
WEEK 4,CDISCPILOT01,LB,01-704-1093,1093,3/15/13,6/20/13,3/15/13,6/17/13,NA,12/25/13,NA,NA,704,79,YEARS,M,WHITE,NOT HISPANIC OR LATINO,Xan_Hi,Xanomeline High Dose,Xan_Hi,Xanomeline High Dose,USA,2/22/13,-21,133,ALT,Alanine Aminotransfera,CHEMISTRY,18,U/L,6,35,18,18,U/L,6,35,NORMAL,NA,5,28,2013-04-12T14:10,29,,,,,,,,,,,,,,,,,,,lb,Alanine Aminotransfera,18,U/L
WEEK 6,CDISCPILOT01,LB,01-704-1093,1093,3/15/13,6/20/13,3/15/13,6/17/13,NA,12/25/13,NA,NA,704,79,YEARS,M,WHITE,NOT HISPANIC OR LATINO,Xan_Hi,Xanomeline High Dose,Xan_Hi,Xanomeline High Dose,USA,2/22/13,-21,163,ALT,Alanine Aminotransfera,CHEMISTRY,14,U/L,6,35,14,14,U/L,6,35,NORMAL,NA,7,42,2013-04-25T08:30,42,,,,,,,,,,,,,,,,,,,lb,Alanine Aminotransfera,14,U/L
WEEK 8,CDISCPILOT01,LB,01-704-1093,1093,3/15/13,6/20/13,3/15/13,6/17/13,NA,12/25/13,NA,NA,704,79,YEARS,M,WHITE,NOT HISPANIC OR LATINO,Xan_Hi,Xanomeline High Dose,Xan_Hi,Xanomeline High Dose,USA,2/22/13,-21,193,ALT,Alanine Aminotransfera,CHEMISTRY,16,U/L,6,35,16,16,U/L,6,35,NORMAL,NA,8,56,2013-05-11T15:00,58,,,,,,,,,,,,,,,,,,,lb,Alanine Aminotransfera,16,U/L
WEEK 12,CDISCPILOT01,LB,01-704-1093,1093,3/15/13,6/20/13,3/15/13,6/17/13,NA,12/25/13,NA,NA,704,79,YEARS,M,WHITE,NOT HISPANIC OR LATINO,Xan_Hi,Xanomeline High Dose,Xan_Hi,Xanomeline High Dose,USA,2/22/13,-21,223,ALT,Alanine Aminotransfera,CHEMISTRY,19,U/L,6,35,19,19,U/L,6,35,NORMAL,NA,9,84,2013-06-07T15:05,85,,,,,,,,,,,,,,,,,,,lb,Alanine Aminotransfera,19,U/L
WEEK 16,CDISCPILOT01,LB,01-704-1093,1093,3/15/13,6/20/13,3/15/13,6/17/13,NA,12/25/13,NA,NA,704,79,YEARS,M,WHITE,NOT HISPANIC OR LATINO,Xan_Hi,Xanomeline High Dose,Xan_Hi,Xanomeline High Dose,USA,2/22/13,-21,258,ALT,Alanine Aminotransfera,CHEMISTRY,17,U/L,6,35,17,17,U/L,6,35,NORMAL,NA,10,112,2013-06-20T11:10,98,,,,,,,,,,,,,,,,,,,lb,Alanine Aminotransfera,17,U/L
SCREENING 1,CDISCPILOT01,LB,01-704-1114,1114,1/23/13,7/8/13,1/23/13,7/7/13,NA,2013-07-08T09:56,NA,NA,704,77,YEARS,M,WHITE,NOT HISPANIC OR LATINO,Xan_Lo,Xanomeline Low Dose,Xan_Lo,Xanomeline Low Dose,USA,1/9/13,-14,3,ALT,Alanine Aminotransfera,CHEMISTRY,17,U/L,6,35,17,17,U/L,6,35,NORMAL,Y,1,-7,2013-01-09T10:50,-14,,,,,,,,,,,,,,,,,,,lb,Alanine Aminotransfera,17,U/L
WEEK 2,CDISCPILOT01,LB,01-704-1114,1114,1/23/13,7/8/13,1/23/13,7/7/13,NA,2013-07-08T09:56,NA,NA,704,77,YEARS,M,WHITE,NOT HISPANIC OR LATINO,Xan_Lo,Xanomeline Low Dose,Xan_Lo,Xanomeline Low Dose,USA,1/9/13,-14,40,ALT,Alanine Aminotransfera,CHEMISTRY,20,U/L,6,35,20,20,U/L,6,35,NORMAL,NA,4,14,2013-02-03T08:55,12,,,,,,,,,,,,,,,,,,,lb,Alanine Aminotransfera,20,U/L
WEEK 4,CDISCPILOT01,LB,01-704-1114,1114,1/23/13,7/8/13,1/23/13,7/7/13,NA,2013-07-08T09:56,NA,NA,704,77,YEARS,M,WHITE,NOT HISPANIC OR LATINO,Xan_Lo,Xanomeline Low Dose,Xan_Lo,Xanomeline Low Dose,USA,1/9/13,-14,75,ALT,Alanine Aminotransfera,CHEMISTRY,15,U/L,6,35,15,15,U/L,6,35,NORMAL,NA,5,28,2013-02-18T08:50,27,,,,,,,,,,,,,,,,,,,lb,Alanine Aminotransfera,15,U/L
WEEK 6,CDISCPILOT01,LB,01-704-1114,1114,1/23/13,7/8/13,1/23/13,7/7/13,NA,2013-07-08T09:56,NA,NA,704,77,YEARS,M,WHITE,NOT HISPANIC OR LATINO,Xan_Lo,Xanomeline Low Dose,Xan_Lo,Xanomeline Low Dose,USA,1/9/13,-14,105,ALT,Alanine Aminotransfera,CHEMISTRY,17,U/L,6,35,17,17,U/L,6,35,NORMAL,NA,7,42,2013-03-13T08:45,50,,,,,,,,,,,,,,,,,,,lb,Alanine Aminotransfera,17,U/L
WEEK 8,CDISCPILOT01,LB,01-704-1114,1114,1/23/13,7/8/13,1/23/13,7/7/13,NA,2013-07-08T09:56,NA,NA,704,77,YEARS,M,WHITE,NOT HISPANIC OR LATINO,Xan_Lo,Xanomeline Low Dose,Xan_Lo,Xanomeline Low Dose,USA,1/9/13,-14,135,ALT,Alanine Aminotransfera,CHEMISTRY,13,U/L,6,35,13,13,U/L,6,35,NORMAL,NA,8,56,2013-03-26T14:40,63,,,,,,,,,,,,,,,,,,,lb,Alanine Aminotransfera,13,U/L
WEEK 12,CDISCPILOT01,LB,01-704-1114,1114,1/23/13,7/8/13,1/23/13,7/7/13,NA,2013-07-08T09:56,NA,NA,704,77,YEARS,M,WHITE,NOT HISPANIC OR LATINO,Xan_Lo,Xanomeline Low Dose,Xan_Lo,Xanomeline Low Dose,USA,1/9/13,-14,165,ALT,Alanine Aminotransfera,CHEMISTRY,15,U/L,6,35,15,15,U/L,6,35,NORMAL,NA,9,84,2013-04-17T11:07,85,,,,,,,,,,,,,,,,,,,lb,Alanine Aminotransfera,15,U/L
WEEK 16,CDISCPILOT01,LB,01-704-1114,1114,1/23/13,7/8/13,1/23/13,7/7/13,NA,2013-07-08T09:56,NA,NA,704,77,YEARS,M,WHITE,NOT HISPANIC OR LATINO,Xan_Lo,Xanomeline Low Dose,Xan_Lo,Xanomeline Low Dose,USA,1/9/13,-14,200,ALT,Alanine Aminotransfera,CHEMISTRY,17,U/L,6,35,17,17,U/L,6,35,NORMAL,NA,10,112,2013-05-14T10:15,112,,,,,,,,,,,,,,,,,,,lb,Alanine Aminotransfera,17,U/L
WEEK 20,CDISCPILOT01,LB,01-704-1114,1114,1/23/13,7/8/13,1/23/13,7/7/13,NA,2013-07-08T09:56,NA,NA,704,77,YEARS,M,WHITE,NOT HISPANIC OR LATINO,Xan_Lo,Xanomeline Low Dose,Xan_Lo,Xanomeline Low Dose,USA,1/9/13,-14,230,ALT,Alanine Aminotransfera,CHEMISTRY,21,U/L,6,35,21,21,U/L,6,35,NORMAL,NA,11,140,2013-06-16T09:10,145,,,,,,,,,,,,,,,,,,,lb,Alanine Aminotransfera,21,U/L
WEEK 24,CDISCPILOT01,LB,01-704-1114,1114,1/23/13,7/8/13,1/23/13,7/7/13,NA,2013-07-08T09:56,NA,NA,704,77,YEARS,M,WHITE,NOT HISPANIC OR LATINO,Xan_Lo,Xanomeline Low Dose,Xan_Lo,Xanomeline Low Dose,USA,1/9/13,-14,260,ALT,Alanine Aminotransfera,CHEMISTRY,12,U/L,6,35,12,12,U/L,6,35,NORMAL,NA,12,168,2013-07-08T09:56,167,,,,,,,,,,,,,,,,,,,lb,Alanine Aminotransfera,12,U/L
SCREENING 1,CDISCPILOT01,LB,01-704-1120,1120,12/2/13,2/3/14,12/2/13,2/1/14,NA,3/10/14,NA,NA,704,71,YEARS,F,WHITE,NOT HISPANIC OR LATINO,Xan_Lo,Xanomeline Low Dose,Xan_Lo,Xanomeline Low Dose,USA,11/18/13,-14,3,ALT,Alanine Aminotransfera,CHEMISTRY,17,U/L,6,32,17,17,U/L,6,32,NORMAL,Y,1,-7,2013-11-17T15:40,-15,,,,,,,,,,,,,,,,,,,lb,Alanine Aminotransfera,17,U/L
WEEK 2,CDISCPILOT01,LB,01-704-1120,1120,12/2/13,2/3/14,12/2/13,2/1/14,NA,3/10/14,NA,NA,704,71,YEARS,F,WHITE,NOT HISPANIC OR LATINO,Xan_Lo,Xanomeline Low Dose,Xan_Lo,Xanomeline Low Dose,USA,11/18/13,-14,40,ALT,Alanine Aminotransfera,CHEMISTRY,13,U/L,6,32,13,13,U/L,6,32,NORMAL,NA,4,14,2013-12-15T15:05,14,,,,,,,,,,,,,,,,,,,lb,Alanine Aminotransfera,13,U/L
WEEK 4,CDISCPILOT01,LB,01-704-1120,1120,12/2/13,2/3/14,12/2/13,2/1/14,NA,3/10/14,NA,NA,704,71,YEARS,F,WHITE,NOT HISPANIC OR LATINO,Xan_Lo,Xanomeline Low Dose,Xan_Lo,Xanomeline Low Dose,USA,11/18/13,-14,75,ALT,Alanine Aminotransfera,CHEMISTRY,12,U/L,6,32,12,12,U/L,6,32,NORMAL,NA,5,28,2013-12-29T11:45,28,,,,,,,,,,,,,,,,,,,lb,Alanine Aminotransfera,12,U/L
WEEK 6,CDISCPILOT01,LB,01-704-1120,1120,12/2/13,2/3/14,12/2/13,2/1/14,NA,3/10/14,NA,NA,704,71,YEARS,F,WHITE,NOT HISPANIC OR LATINO,Xan_Lo,Xanomeline Low Dose,Xan_Lo,Xanomeline Low Dose,USA,11/18/13,-14,105,ALT,Alanine Aminotransfera,CHEMISTRY,33,U/L,6,32,33,33,U/L,6,32,HIGH,NA,7,42,2014-01-13T09:30,43,,,,,,,,,,,,,,,,,,,lb,Alanine Aminotransfera,33,U/L
WEEK 8,CDISCPILOT01,LB,01-704-1120,1120,12/2/13,2/3/14,12/2/13,2/1/14,NA,3/10/14,NA,NA,704,71,YEARS,F,WHITE,NOT HISPANIC OR LATINO,Xan_Lo,Xanomeline Low Dose,Xan_Lo,Xanomeline Low Dose,USA,11/18/13,-14,135,ALT,Alanine Aminotransfera,CHEMISTRY,24,U/L,6,32,24,24,U/L,6,32,NORMAL,NA,8,56,2014-01-27T11:08,57,,,,,,,,,,,,,,,,,,,lb,Alanine Aminotransfera,24,U/L
WEEK 12,CDISCPILOT01,LB,01-704-1120,1120,12/2/13,2/3/14,12/2/13,2/1/14,NA,3/10/14,NA,NA,704,71,YEARS,F,WHITE,NOT HISPANIC OR LATINO,Xan_Lo,Xanomeline Low Dose,Xan_Lo,Xanomeline Low Dose,USA,11/18/13,-14,162,ALT,Alanine Aminotransfera,CHEMISTRY,12,U/L,6,32,12,12,U/L,6,32,NORMAL,NA,9,84,2014-02-03T11:50,64,,,,,,,,,,,,,,,,,,,lb,Alanine Aminotransfera,12,U/L
SCREENING 1,CDISCPILOT01,LB,01-704-1127,1127,10/2/13,3/31/14,10/2/13,3/31/14,NA,2014-03-31T11:30,NA,NA,704,84,YEARS,F,WHITE,NOT HISPANIC OR LATINO,Pbo,Placebo,Pbo,Placebo,USA,9/16/13,-16,3,ALT,Alanine Aminotransfera,CHEMISTRY,21,U/L,6,32,21,21,U/L,6,32,NORMAL,Y,1,-7,2013-09-16T14:50,-16,,,,,,,,,,,,,,,,,,,lb,Alanine Aminotransfera,21,U/L
WEEK 2,CDISCPILOT01,LB,01-704-1127,1127,10/2/13,3/31/14,10/2/13,3/31/14,NA,2014-03-31T11:30,NA,NA,704,84,YEARS,F,WHITE,NOT HISPANIC OR LATINO,Pbo,Placebo,Pbo,Placebo,USA,9/16/13,-16,40,ALT,Alanine Aminotransfera,CHEMISTRY,17,U/L,6,32,17,17,U/L,6,32,NORMAL,NA,4,14,2013-10-16T13:45,15,,,,,,,,,,,,,,,,,,,lb,Alanine Aminotransfera,17,U/L
WEEK 4,CDISCPILOT01,LB,01-704-1127,1127,10/2/13,3/31/14,10/2/13,3/31/14,NA,2014-03-31T11:30,NA,NA,704,84,YEARS,F,WHITE,NOT HISPANIC OR LATINO,Pbo,Placebo,Pbo,Placebo,USA,9/16/13,-16,75,ALT,Alanine Aminotransfera,CHEMISTRY,20,U/L,6,32,20,20,U/L,6,32,NORMAL,NA,5,28,2013-10-30T11:17,29,,,,,,,,,,,,,,,,,,,lb,Alanine Aminotransfera,20,U/L
WEEK 6,CDISCPILOT01,LB,01-704-1127,1127,10/2/13,3/31/14,10/2/13,3/31/14,NA,2014-03-31T11:30,NA,NA,704,84,YEARS,F,WHITE,NOT HISPANIC OR LATINO,Pbo,Placebo,Pbo,Placebo,USA,9/16/13,-16,105,ALT,Alanine Aminotransfera,CHEMISTRY,20,U/L,6,32,20,20,U/L,6,32,NORMAL,NA,7,42,2013-11-13T11:20,43,,,,,,,,,,,,,,,,,,,lb,Alanine Aminotransfera,20,U/L
WEEK 8,CDISCPILOT01,LB,01-704-1127,1127,10/2/13,3/31/14,10/2/13,3/31/14,NA,2014-03-31T11:30,NA,NA,704,84,YEARS,F,WHITE,NOT HISPANIC OR LATINO,Pbo,Placebo,Pbo,Placebo,USA,9/16/13,-16,135,ALT,Alanine Aminotransfera,CHEMISTRY,20,U/L,6,32,20,20,U/L,6,32,NORMAL,NA,8,56,2013-11-26T12:30,56,,,,,,,,,,,,,,,,,,,lb,Alanine Aminotransfera,20,U/L
WEEK 12,CDISCPILOT01,LB,01-704-1127,1127,10/2/13,3/31/14,10/2/13,3/31/14,NA,2014-03-31T11:30,NA,NA,704,84,YEARS,F,WHITE,NOT HISPANIC OR LATINO,Pbo,Placebo,Pbo,Placebo,USA,9/16/13,-16,165,ALT,Alanine Aminotransfera,CHEMISTRY,19,U/L,6,32,19,19,U/L,6,32,NORMAL,NA,9,84,2013-12-25T15:30,85,,,,,,,,,,,,,,,,,,,lb,Alanine Aminotransfera,19,U/L
WEEK 16,CDISCPILOT01,LB,01-704-1127,1127,10/2/13,3/31/14,10/2/13,3/31/14,NA,2014-03-31T11:30,NA,NA,704,84,YEARS,F,WHITE,NOT HISPANIC OR LATINO,Pbo,Placebo,Pbo,Placebo,USA,9/16/13,-16,200,ALT,Alanine Aminotransfera,CHEMISTRY,26,U/L,6,32,26,26,U/L,6,32,NORMAL,NA,10,112,2014-01-21T11:30,112,,,,,,,,,,,,,,,,,,,lb,Alanine Aminotransfera,26,U/L
WEEK 20,CDISCPILOT01,LB,01-704-1127,1127,10/2/13,3/31/14,10/2/13,3/31/14,NA,2014-03-31T11:30,NA,NA,704,84,YEARS,F,WHITE,NOT HISPANIC OR LATINO,Pbo,Placebo,Pbo,Placebo,USA,9/16/13,-16,230,ALT,Alanine Aminotransfera,CHEMISTRY,18,U/L,6,32,18,18,U/L,6,32,NORMAL,NA,11,140,2014-02-17T10:00,139,,,,,,,,,,,,,,,,,,,lb,Alanine Aminotransfera,18,U/L
WEEK 24,CDISCPILOT01,LB,01-704-1127,1127,10/2/13,3/31/14,10/2/13,3/31/14,NA,2014-03-31T11:30,NA,NA,704,84,YEARS,F,WHITE,NOT HISPANIC OR LATINO,Pbo,Placebo,Pbo,Placebo,USA,9/16/13,-16,260,ALT,Alanine Aminotransfera,CHEMISTRY,18,U/L,6,32,18,18,U/L,6,32,NORMAL,NA,12,168,2014-03-17T11:20,167,,,,,,,,,,,,,,,,,,,lb,Alanine Aminotransfera,18,U/L
WEEK 26,CDISCPILOT01,LB,01-704-1127,1127,10/2/13,3/31/14,10/2/13,3/31/14,NA,2014-03-31T11:30,NA,NA,704,84,YEARS,F,WHITE,NOT HISPANIC OR LATINO,Pbo,Placebo,Pbo,Placebo,USA,9/16/13,-16,295,ALT,Alanine Aminotransfera,CHEMISTRY,15,U/L,6,32,15,15,U/L,6,32,NORMAL,NA,13,182,2014-03-31T11:30,181,,,,,,,,,,,,,,,,,,,lb,Alanine Aminotransfera,15,U/L
SCREENING 1,CDISCPILOT01,LB,01-704-1135,1135,10/31/13,5/16/14,10/31/13,5/16/14,NA,2014-05-16T09:45,NA,NA,704,74,YEARS,F,WHITE,NOT HISPANIC OR LATINO,Xan_Lo,Xanomeline Low Dose,Xan_Lo,Xanomeline Low Dose,USA,10/23/13,-8,3,ALT,Alanine Aminotransfera,CHEMISTRY,16,U/L,6,32,16,16,U/L,6,32,NORMAL,Y,1,-7,2013-10-23T10:18,-8,,,,,,,,,,,,,,,,,,,lb,Alanine Aminotransfera,16,U/L
WEEK 2,CDISCPILOT01,LB,01-704-1135,1135,10/31/13,5/16/14,10/31/13,5/16/14,NA,2014-05-16T09:45,NA,NA,704,74,YEARS,F,WHITE,NOT HISPANIC OR LATINO,Xan_Lo,Xanomeline Low Dose,Xan_Lo,Xanomeline Low Dose,USA,10/23/13,-8,40,ALT,Alanine Aminotransfera,CHEMISTRY,17,U/L,6,32,17,17,U/L,6,32,NORMAL,NA,4,14,2013-11-14T14:30,15,,,,,,,,,,,,,,,,,,,lb,Alanine Aminotransfera,17,U/L
WEEK 4,CDISCPILOT01,LB,01-704-1135,1135,10/31/13,5/16/14,10/31/13,5/16/14,NA,2014-05-16T09:45,NA,NA,704,74,YEARS,F,WHITE,NOT HISPANIC OR LATINO,Xan_Lo,Xanomeline Low Dose,Xan_Lo,Xanomeline Low Dose,USA,10/23/13,-8,75,ALT,Alanine Aminotransfera,CHEMISTRY,15,U/L,6,32,15,15,U/L,6,32,NORMAL,NA,5,28,2013-11-26T15:10,27,,,,,,,,,,,,,,,,,,,lb,Alanine Aminotransfera,15,U/L
WEEK 6,CDISCPILOT01,LB,01-704-1135,1135,10/31/13,5/16/14,10/31/13,5/16/14,NA,2014-05-16T09:45,NA,NA,704,74,YEARS,F,WHITE,NOT HISPANIC OR LATINO,Xan_Lo,Xanomeline Low Dose,Xan_Lo,Xanomeline Low Dose,USA,10/23/13,-8,105,ALT,Alanine Aminotransfera,CHEMISTRY,18,U/L,6,32,18,18,U/L,6,32,NORMAL,NA,7,42,2013-12-11T11:32,42,,,,,,,,,,,,,,,,,,,lb,Alanine Aminotransfera,18,U/L
WEEK 8,CDISCPILOT01,LB,01-704-1135,1135,10/31/13,5/16/14,10/31/13,5/16/14,NA,2014-05-16T09:45,NA,NA,704,74,YEARS,F,WHITE,NOT HISPANIC OR LATINO,Xan_Lo,Xanomeline Low Dose,Xan_Lo,Xanomeline Low Dose,USA,10/23/13,-8,135,ALT,Alanine Aminotransfera,CHEMISTRY,18,U/L,6,32,18,18,U/L,6,32,NORMAL,NA,8,56,2013-12-25T11:52,56,,,,,,,,,,,,,,,,,,,lb,Alanine Aminotransfera,18,U/L
WEEK 12,CDISCPILOT01,LB,01-704-1135,1135,10/31/13,5/16/14,10/31/13,5/16/14,NA,2014-05-16T09:45,NA,NA,704,74,YEARS,F,WHITE,NOT HISPANIC OR LATINO,Xan_Lo,Xanomeline Low Dose,Xan_Lo,Xanomeline Low Dose,USA,10/23/13,-8,165,ALT,Alanine Aminotransfera,CHEMISTRY,14,U/L,6,32,14,14,U/L,6,32,NORMAL,NA,9,84,2014-01-22T08:57,84,,,,,,,,,,,,,,,,,,,lb,Alanine Aminotransfera,14,U/L
WEEK 16,CDISCPILOT01,LB,01-704-1135,1135,10/31/13,5/16/14,10/31/13,5/16/14,NA,2014-05-16T09:45,NA,NA,704,74,YEARS,F,WHITE,NOT HISPANIC OR LATINO,Xan_Lo,Xanomeline Low Dose,Xan_Lo,Xanomeline Low Dose,USA,10/23/13,-8,201,ALT,Alanine Aminotransfera,CHEMISTRY,14,U/L,6,32,14,14,U/L,6,32,NORMAL,NA,10,112,2014-02-19T11:00,112,,,,,,,,,,,,,,,,,,,lb,Alanine Aminotransfera,14,U/L
WEEK 20,CDISCPILOT01,LB,01-704-1135,1135,10/31/13,5/16/14,10/31/13,5/16/14,NA,2014-05-16T09:45,NA,NA,704,74,YEARS,F,WHITE,NOT HISPANIC OR LATINO,Xan_Lo,Xanomeline Low Dose,Xan_Lo,Xanomeline Low Dose,USA,10/23/13,-8,231,ALT,Alanine Aminotransfera,CHEMISTRY,13,U/L,6,32,13,13,U/L,6,32,NORMAL,NA,11,140,2014-03-26T09:45,147,,,,,,,,,,,,,,,,,,,lb,Alanine Aminotransfera,13,U/L
WEEK 24,CDISCPILOT01,LB,01-704-1135,1135,10/31/13,5/16/14,10/31/13,5/16/14,NA,2014-05-16T09:45,NA,NA,704,74,YEARS,F,WHITE,NOT HISPANIC OR LATINO,Xan_Lo,Xanomeline Low Dose,Xan_Lo,Xanomeline Low Dose,USA,10/23/13,-8,268,ALT,Alanine Aminotransfera,CHEMISTRY,19,U/L,6,32,19,19,U/L,6,32,NORMAL,NA,12,168,2014-05-01T02:55,183,,,,,,,,,,,,,,,,,,,lb,Alanine Aminotransfera,19,U/L
WEEK 26,CDISCPILOT01,LB,01-704-1135,1135,10/31/13,5/16/14,10/31/13,5/16/14,NA,2014-05-16T09:45,NA,NA,704,74,YEARS,F,WHITE,NOT HISPANIC OR LATINO,Xan_Lo,Xanomeline Low Dose,Xan_Lo,Xanomeline Low Dose,USA,10/23/13,-8,303,ALT,Alanine Aminotransfera,CHEMISTRY,15,U/L,6,32,15,15,U/L,6,32,NORMAL,NA,13,182,2014-05-16T09:45,198,,,,,,,,,,,,,,,,,,,lb,Alanine Aminotransfera,15,U/L
SCREENING 1,CDISCPILOT01,LB,01-704-1164,1164,9/19/12,4/4/13,9/19/12,4/4/13,NA,4/4/13,NA,NA,704,67,YEARS,F,WHITE,NOT HISPANIC OR LATINO,Pbo,Placebo,Pbo,Placebo,USA,9/11/12,-8,3,ALT,Alanine Aminotransfera,CHEMISTRY,7,U/L,6,34,7,7,U/L,6,34,NORMAL,Y,1,-7,2012-08-30T12:30,-20,,,,,,,,,,,,,,,,,,,lb,Alanine Aminotransfera,7,U/L
WEEK 2,CDISCPILOT01,LB,01-704-1164,1164,9/19/12,4/4/13,9/19/12,4/4/13,NA,4/4/13,NA,NA,704,67,YEARS,F,WHITE,NOT HISPANIC OR LATINO,Pbo,Placebo,Pbo,Placebo,USA,9/11/12,-8,40,ALT,Alanine Aminotransfera,CHEMISTRY,7,U/L,6,34,7,7,U/L,6,34,NORMAL,NA,4,14,2012-10-04T11:45,16,,,,,,,,,,,,,,,,,,,lb,Alanine Aminotransfera,7,U/L
WEEK 4,CDISCPILOT01,LB,01-704-1164,1164,9/19/12,4/4/13,9/19/12,4/4/13,NA,4/4/13,NA,NA,704,67,YEARS,F,WHITE,NOT HISPANIC OR LATINO,Pbo,Placebo,Pbo,Placebo,USA,9/11/12,-8,75,ALT,Alanine Aminotransfera,CHEMISTRY,6,U/L,6,34,6,6,U/L,6,34,NORMAL,NA,5,28,2012-10-21T10:45,33,,,,,,,,,,,,,,,,,,,lb,Alanine Aminotransfera,6,U/L
WEEK 6,CDISCPILOT01,LB,01-704-1164,1164,9/19/12,4/4/13,9/19/12,4/4/13,NA,4/4/13,NA,NA,704,67,YEARS,F,WHITE,NOT HISPANIC OR LATINO,Pbo,Placebo,Pbo,Placebo,USA,9/11/12,-8,105,ALT,Alanine Aminotransfera,CHEMISTRY,7,U/L,6,34,7,7,U/L,6,34,NORMAL,NA,7,42,2012-11-01T08:58,44,,,,,,,,,,,,,,,,,,,lb,Alanine Aminotransfera,7,U/L
WEEK 8,CDISCPILOT01,LB,01-704-1164,1164,9/19/12,4/4/13,9/19/12,4/4/13,NA,4/4/13,NA,NA,704,67,YEARS,F,WHITE,NOT HISPANIC OR LATINO,Pbo,Placebo,Pbo,Placebo,USA,9/11/12,-8,135,ALT,Alanine Aminotransfera,CHEMISTRY,7,U/L,6,34,7,7,U/L,6,34,NORMAL,NA,8,56,2012-11-15T11:00,58,,,,,,,,,,,,,,,,,,,lb,Alanine Aminotransfera,7,U/L
WEEK 12,CDISCPILOT01,LB,01-704-1164,1164,9/19/12,4/4/13,9/19/12,4/4/13,NA,4/4/13,NA,NA,704,67,YEARS,F,WHITE,NOT HISPANIC OR LATINO,Pbo,Placebo,Pbo,Placebo,USA,9/11/12,-8,165,ALT,Alanine Aminotransfera,CHEMISTRY,13,U/L,6,34,13,13,U/L,6,34,NORMAL,NA,9,84,2012-12-16T13:35,89,,,,,,,,,,,,,,,,,,,lb,Alanine Aminotransfera,13,U/L
WEEK 16,CDISCPILOT01,LB,01-704-1164,1164,9/19/12,4/4/13,9/19/12,4/4/13,NA,4/4/13,NA,NA,704,67,YEARS,F,WHITE,NOT HISPANIC OR LATINO,Pbo,Placebo,Pbo,Placebo,USA,9/11/12,-8,200,ALT,Alanine Aminotransfera,CHEMISTRY,9,U/L,6,34,9,9,U/L,6,34,NORMAL,NA,10,112,2013-01-14T10:45,118,,,,,,,,,,,,,,,,,,,lb,Alanine Aminotransfera,9,U/L
WEEK 20,CDISCPILOT01,LB,01-704-1164,1164,9/19/12,4/4/13,9/19/12,4/4/13,NA,4/4/13,NA,NA,704,67,YEARS,F,WHITE,NOT HISPANIC OR LATINO,Pbo,Placebo,Pbo,Placebo,USA,9/11/12,-8,230,ALT,Alanine Aminotransfera,CHEMISTRY,10,U/L,6,34,10,10,U/L,6,34,NORMAL,NA,11,140,2013-02-14T15:02,149,,,,,,,,,,,,,,,,,,,lb,Alanine Aminotransfera,10,U/L
WEEK 24,CDISCPILOT01,LB,01-704-1164,1164,9/19/12,4/4/13,9/19/12,4/4/13,NA,4/4/13,NA,NA,704,67,YEARS,F,WHITE,NOT HISPANIC OR LATINO,Pbo,Placebo,Pbo,Placebo,USA,9/11/12,-8,260,ALT,Alanine Aminotransfera,CHEMISTRY,7,U/L,6,34,7,7,U/L,6,34,NORMAL,NA,12,168,2013-03-17T14:00,180,,,,,,,,,,,,,,,,,,,lb,Alanine Aminotransfera,7,U/L
WEEK 26,CDISCPILOT01,LB,01-704-1164,1164,9/19/12,4/4/13,9/19/12,4/4/13,NA,4/4/13,NA,NA,704,67,YEARS,F,WHITE,NOT HISPANIC OR LATINO,Pbo,Placebo,Pbo,Placebo,USA,9/11/12,-8,297,ALT,Alanine Aminotransfera,CHEMISTRY,6,U/L,6,34,6,6,U/L,6,34,NORMAL,NA,13,182,4/4/13,198,,,,,,,,,,,,,,,,,,,lb,Alanine Aminotransfera,6,U/L
SCREENING 1,CDISCPILOT01,LB,01-704-1218,1218,11/19/12,5/27/13,11/19/12,5/27/13,NA,2013-05-27T11:20,NA,NA,704,81,YEARS,F,WHITE,NOT HISPANIC OR LATINO,Xan_Lo,Xanomeline Low Dose,Xan_Lo,Xanomeline Low Dose,USA,11/11/12,-8,3,ALT,Alanine Aminotransfera,CHEMISTRY,19,U/L,6,32,19,19,U/L,6,32,NORMAL,Y,1,-7,2012-09-16T11:55,-64,,,,,,,,,,,,,,,,,,,lb,Alanine Aminotransfera,19,U/L
UNSCHEDULED 1,CDISCPILOT01,LB,01-704-1218,1218,11/19/12,5/27/13,11/19/12,5/27/13,NA,2013-05-27T11:20,NA,NA,704,81,YEARS,F,WHITE,NOT HISPANIC OR LATINO,Xan_Lo,Xanomeline Low Dose,Xan_Lo,Xanomeline Low Dose,USA,11/11/12,-8,40,ALT,Alanine Aminotransfera,CHEMISTRY,13,U/L,6,32,13,13,U/L,6,32,NORMAL,NA,1.1,NA,2012-10-11T07:50,-39,,,,,,,,,,,,,,,,,,,lb,Alanine Aminotransfera,13,U/L
UNSCHEDULED 1,CDISCPILOT01,LB,01-704-1218,1218,11/19/12,5/27/13,11/19/12,5/27/13,NA,2013-05-27T11:20,NA,NA,704,81,YEARS,F,WHITE,NOT HISPANIC OR LATINO,Xan_Lo,Xanomeline Low Dose,Xan_Lo,Xanomeline Low Dose,USA,11/11/12,-8,56,ALT,Alanine Aminotransfera,CHEMISTRY,11,U/L,6,32,11,11,U/L,6,32,NORMAL,NA,1.2,NA,2012-11-11T15:10,-8,,,,,,,,,,,,,,,,,,,lb,Alanine Aminotransfera,11,U/L
WEEK 2,CDISCPILOT01,LB,01-704-1218,1218,11/19/12,5/27/13,11/19/12,5/27/13,NA,2013-05-27T11:20,NA,NA,704,81,YEARS,F,WHITE,NOT HISPANIC OR LATINO,Xan_Lo,Xanomeline Low Dose,Xan_Lo,Xanomeline Low Dose,USA,11/11/12,-8,93,ALT,Alanine Aminotransfera,CHEMISTRY,17,U/L,6,32,17,17,U/L,6,32,NORMAL,NA,4,14,2012-12-03T15:00,15,,,,,,,,,,,,,,,,,,,lb,Alanine Aminotransfera,17,U/L
WEEK 4,CDISCPILOT01,LB,01-704-1218,1218,11/19/12,5/27/13,11/19/12,5/27/13,NA,2013-05-27T11:20,NA,NA,704,81,YEARS,F,WHITE,NOT HISPANIC OR LATINO,Xan_Lo,Xanomeline Low Dose,Xan_Lo,Xanomeline Low Dose,USA,11/11/12,-8,128,ALT,Alanine Aminotransfera,CHEMISTRY,23,U/L,6,32,23,23,U/L,6,32,NORMAL,NA,5,28,2012-12-15T14:30,27,,,,,,,,,,,,,,,,,,,lb,Alanine Aminotransfera,23,U/L
WEEK 6,CDISCPILOT01,LB,01-704-1218,1218,11/19/12,5/27/13,11/19/12,5/27/13,NA,2013-05-27T11:20,NA,NA,704,81,YEARS,F,WHITE,NOT HISPANIC OR LATINO,Xan_Lo,Xanomeline Low Dose,Xan_Lo,Xanomeline Low Dose,USA,11/11/12,-8,155,ALT,Alanine Aminotransfera,CHEMISTRY,18,U/L,6,32,18,18,U/L,6,32,NORMAL,NA,7,42,2012-12-30T09:30,42,,,,,,,,,,,,,,,,,,,lb,Alanine Aminotransfera,18,U/L
WEEK 8,CDISCPILOT01,LB,01-704-1218,1218,11/19/12,5/27/13,11/19/12,5/27/13,NA,2013-05-27T11:20,NA,NA,704,81,YEARS,F,WHITE,NOT HISPANIC OR LATINO,Xan_Lo,Xanomeline Low Dose,Xan_Lo,Xanomeline Low Dose,USA,11/11/12,-8,185,ALT,Alanine Aminotransfera,CHEMISTRY,21,U/L,6,32,21,21,U/L,6,32,NORMAL,NA,8,56,2013-01-14T14:45,57,,,,,,,,,,,,,,,,,,,lb,Alanine Aminotransfera,21,U/L
WEEK 12,CDISCPILOT01,LB,01-704-1218,1218,11/19/12,5/27/13,11/19/12,5/27/13,NA,2013-05-27T11:20,NA,NA,704,81,YEARS,F,WHITE,NOT HISPANIC OR LATINO,Xan_Lo,Xanomeline Low Dose,Xan_Lo,Xanomeline Low Dose,USA,11/11/12,-8,221,ALT,Alanine Aminotransfera,CHEMISTRY,19,U/L,6,32,19,19,U/L,6,32,NORMAL,NA,9,84,2013-02-11T15:30,85,,,,,,,,,,,,,,,,,,,lb,Alanine Aminotransfera,19,U/L
WEEK 16,CDISCPILOT01,LB,01-704-1218,1218,11/19/12,5/27/13,11/19/12,5/27/13,NA,2013-05-27T11:20,NA,NA,704,81,YEARS,F,WHITE,NOT HISPANIC OR LATINO,Xan_Lo,Xanomeline Low Dose,Xan_Lo,Xanomeline Low Dose,USA,11/11/12,-8,256,ALT,Alanine Aminotransfera,CHEMISTRY,19,U/L,6,32,19,19,U/L,6,32,NORMAL,NA,10,112,2013-03-18T12:00,120,,,,,,,,,,,,,,,,,,,lb,Alanine Aminotransfera,19,U/L
WEEK 20,CDISCPILOT01,LB,01-704-1218,1218,11/19/12,5/27/13,11/19/12,5/27/13,NA,2013-05-27T11:20,NA,NA,704,81,YEARS,F,WHITE,NOT HISPANIC OR LATINO,Xan_Lo,Xanomeline Low Dose,Xan_Lo,Xanomeline Low Dose,USA,11/11/12,-8,288,ALT,Alanine Aminotransfera,CHEMISTRY,22,U/L,6,32,22,22,U/L,6,32,NORMAL,NA,11,140,2013-04-14T09:15,147,,,,,,,,,,,,,,,,,,,lb,Alanine Aminotransfera,22,U/L
WEEK 24,CDISCPILOT01,LB,01-704-1218,1218,11/19/12,5/27/13,11/19/12,5/27/13,NA,2013-05-27T11:20,NA,NA,704,81,YEARS,F,WHITE,NOT HISPANIC OR LATINO,Xan_Lo,Xanomeline Low Dose,Xan_Lo,Xanomeline Low Dose,USA,11/11/12,-8,318,ALT,Alanine Aminotransfera,CHEMISTRY,21,U/L,6,32,21,21,U/L,6,32,NORMAL,NA,12,168,2013-05-13T09:00,176,,,,,,,,,,,,,,,,,,,lb,Alanine Aminotransfera,21,U/L
WEEK 26,CDISCPILOT01,LB,01-704-1218,1218,11/19/12,5/27/13,11/19/12,5/27/13,NA,2013-05-27T11:20,NA,NA,704,81,YEARS,F,WHITE,NOT HISPANIC OR LATINO,Xan_Lo,Xanomeline Low Dose,Xan_Lo,Xanomeline Low Dose,USA,11/11/12,-8,353,ALT,Alanine Aminotransfera,CHEMISTRY,21,U/L,6,32,21,21,U/L,6,32,NORMAL,NA,13,182,2013-05-27T11:20,190,,,,,,,,,,,,,,,,,,,lb,Alanine Aminotransfera,21,U/L
SCREENING 1,CDISCPILOT01,LB,01-704-1233,1233,3/21/13,7/14/13,3/21/13,4/4/13,NA,7/14/13,NA,NA,704,87,YEARS,F,WHITE,NOT HISPANIC OR LATINO,Pbo,Placebo,Pbo,Placebo,USA,3/8/13,-13,3,ALT,Alanine Aminotransfera,CHEMISTRY,13,U/L,6,32,13,13,U/L,6,32,NORMAL,Y,1,-7,2013-03-07T16:30,-14,,,,,,,,,,,,,,,,,,,lb,Alanine Aminotransfera,13,U/L
WEEK 2,CDISCPILOT01,LB,01-704-1233,1233,3/21/13,7/14/13,3/21/13,4/4/13,NA,7/14/13,NA,NA,704,87,YEARS,F,WHITE,NOT HISPANIC OR LATINO,Pbo,Placebo,Pbo,Placebo,USA,3/8/13,-13,40,ALT,Alanine Aminotransfera,CHEMISTRY,14,U/L,6,32,14,14,U/L,6,32,NORMAL,NA,4,14,2013-04-04T10:50,15,,,,,,,,,,,,,,,,,,,lb,Alanine Aminotransfera,14,U/L
WEEK 4,CDISCPILOT01,LB,01-704-1233,1233,3/21/13,7/14/13,3/21/13,4/4/13,NA,7/14/13,NA,NA,704,87,YEARS,F,WHITE,NOT HISPANIC OR LATINO,Pbo,Placebo,Pbo,Placebo,USA,3/8/13,-13,75,ALT,Alanine Aminotransfera,CHEMISTRY,16,U/L,6,32,16,16,U/L,6,32,NORMAL,NA,5,28,2013-04-16T13:30,27,,,,,,,,,,,,,,,,,,,lb,Alanine Aminotransfera,16,U/L
WEEK 6,CDISCPILOT01,LB,01-704-1233,1233,3/21/13,7/14/13,3/21/13,4/4/13,NA,7/14/13,NA,NA,704,87,YEARS,F,WHITE,NOT HISPANIC OR LATINO,Pbo,Placebo,Pbo,Placebo,USA,3/8/13,-13,102,ALT,Alanine Aminotransfera,CHEMISTRY,13,U/L,6,32,13,13,U/L,6,32,NORMAL,NA,7,42,2013-05-01T13:45,42,,,,,,,,,,,,,,,,,,,lb,Alanine Aminotransfera,13,U/L
WEEK 8,CDISCPILOT01,LB,01-704-1233,1233,3/21/13,7/14/13,3/21/13,4/4/13,NA,7/14/13,NA,NA,704,87,YEARS,F,WHITE,NOT HISPANIC OR LATINO,Pbo,Placebo,Pbo,Placebo,USA,3/8/13,-13,132,ALT,Alanine Aminotransfera,CHEMISTRY,10,U/L,6,32,10,10,U/L,6,32,NORMAL,NA,8,56,2013-05-16T16:12,57,,,,,,,,,,,,,,,,,,,lb,Alanine Aminotransfera,10,U/L
WEEK 12,CDISCPILOT01,LB,01-704-1233,1233,3/21/13,7/14/13,3/21/13,4/4/13,NA,7/14/13,NA,NA,704,87,YEARS,F,WHITE,NOT HISPANIC OR LATINO,Pbo,Placebo,Pbo,Placebo,USA,3/8/13,-13,162,ALT,Alanine Aminotransfera,CHEMISTRY,9,U/L,6,32,9,9,U/L,6,32,NORMAL,NA,9,84,2013-06-13T15:30,85,,,,,,,,,,,,,,,,,,,lb,Alanine Aminotransfera,9,U/L
WEEK 16,CDISCPILOT01,LB,01-704-1233,1233,3/21/13,7/14/13,3/21/13,4/4/13,NA,7/14/13,NA,NA,704,87,YEARS,F,WHITE,NOT HISPANIC OR LATINO,Pbo,Placebo,Pbo,Placebo,USA,3/8/13,-13,197,ALT,Alanine Aminotransfera,CHEMISTRY,15,U/L,6,32,15,15,U/L,6,32,NORMAL,NA,10,112,2013-07-11T11:30,113,,,,,,,,,,,,,,,,,,,lb,Alanine Aminotransfera,15,U/L
SCREENING 1,CDISCPILOT01,LB,01-704-1241,1241,8/25/13,10/31/13,8/25/13,10/9/13,NA,1/22/14,NA,NA,704,86,YEARS,M,WHITE,NOT HISPANIC OR LATINO,Xan_Hi,Xanomeline High Dose,Xan_Hi,Xanomeline High Dose,USA,8/14/13,-11,3,ALT,Alanine Aminotransfera,CHEMISTRY,15,U/L,6,35,15,15,U/L,6,35,NORMAL,Y,1,-7,2013-08-14T10:45,-11,,,,,,,,,,,,,,,,,,,lb,Alanine Aminotransfera,15,U/L
WEEK 2,CDISCPILOT01,LB,01-704-1241,1241,8/25/13,10/31/13,8/25/13,10/9/13,NA,1/22/14,NA,NA,704,86,YEARS,M,WHITE,NOT HISPANIC OR LATINO,Xan_Hi,Xanomeline High Dose,Xan_Hi,Xanomeline High Dose,USA,8/14/13,-11,40,ALT,Alanine Aminotransfera,CHEMISTRY,18,U/L,6,35,18,18,U/L,6,35,NORMAL,NA,4,14,2013-09-05T09:40,12,,,,,,,,,,,,,,,,,,,lb,Alanine Aminotransfera,18,U/L
WEEK 4,CDISCPILOT01,LB,01-704-1241,1241,8/25/13,10/31/13,8/25/13,10/9/13,NA,1/22/14,NA,NA,704,86,YEARS,M,WHITE,NOT HISPANIC OR LATINO,Xan_Hi,Xanomeline High Dose,Xan_Hi,Xanomeline High Dose,USA,8/14/13,-11,76,ALT,Alanine Aminotransfera,CHEMISTRY,18,U/L,6,35,18,18,U/L,6,35,NORMAL,NA,5,28,2013-09-19T10:00,26,,,,,,,,,,,,,,,,,,,lb,Alanine Aminotransfera,18,U/L
WEEK 6,CDISCPILOT01,LB,01-704-1241,1241,8/25/13,10/31/13,8/25/13,10/9/13,NA,1/22/14,NA,NA,704,86,YEARS,M,WHITE,NOT HISPANIC OR LATINO,Xan_Hi,Xanomeline High Dose,Xan_Hi,Xanomeline High Dose,USA,8/14/13,-11,94,ALT,Alanine Aminotransfera,CHEMISTRY,23,U/L,6,35,23,23,U/L,6,35,NORMAL,NA,7,42,2013-10-09T10:30,46,,,,,,,,,,,,,,,,,,,lb,Alanine Aminotransfera,23,U/L
WEEK 8,CDISCPILOT01,LB,01-704-1241,1241,8/25/13,10/31/13,8/25/13,10/9/13,NA,1/22/14,NA,NA,704,86,YEARS,M,WHITE,NOT HISPANIC OR LATINO,Xan_Hi,Xanomeline High Dose,Xan_Hi,Xanomeline High Dose,USA,8/14/13,-11,125,ALT,Alanine Aminotransfera,CHEMISTRY,17,U/L,6,35,17,17,U/L,6,35,NORMAL,NA,8,56,2013-10-31T09:15,68,,,,,,,,,,,,,,,,,,,lb,Alanine Aminotransfera,17,U/L
SCREENING 1,CDISCPILOT01,LB,01-704-1260,1260,8/30/12,1/18/13,8/30/12,11/4/12,NA,1/18/13,NA,NA,704,71,YEARS,F,WHITE,NOT HISPANIC OR LATINO,Pbo,Placebo,Pbo,Placebo,USA,8/23/12,-7,3,ALT,Alanine Aminotransfera,CHEMISTRY,20,U/L,6,32,20,20,U/L,6,32,NORMAL,Y,1,-7,2012-08-23T12:30,-7,,,,,,,,,,,,,,,,,,,lb,Alanine Aminotransfera,20,U/L
WEEK 2,CDISCPILOT01,LB,01-704-1260,1260,8/30/12,1/18/13,8/30/12,11/4/12,NA,1/18/13,NA,NA,704,71,YEARS,F,WHITE,NOT HISPANIC OR LATINO,Pbo,Placebo,Pbo,Placebo,USA,8/23/12,-7,40,ALT,Alanine Aminotransfera,CHEMISTRY,19,U/L,6,32,19,19,U/L,6,32,NORMAL,NA,4,14,2012-09-13T14:00,15,,,,,,,,,,,,,,,,,,,lb,Alanine Aminotransfera,19,U/L
WEEK 4,CDISCPILOT01,LB,01-704-1260,1260,8/30/12,1/18/13,8/30/12,11/4/12,NA,1/18/13,NA,NA,704,71,YEARS,F,WHITE,NOT HISPANIC OR LATINO,Pbo,Placebo,Pbo,Placebo,USA,8/23/12,-7,75,ALT,Alanine Aminotransfera,CHEMISTRY,17,U/L,6,32,17,17,U/L,6,32,NORMAL,NA,5,28,2012-09-26T08:40,28,,,,,,,,,,,,,,,,,,,lb,Alanine Aminotransfera,17,U/L
WEEK 6,CDISCPILOT01,LB,01-704-1260,1260,8/30/12,1/18/13,8/30/12,11/4/12,NA,1/18/13,NA,NA,704,71,YEARS,F,WHITE,NOT HISPANIC OR LATINO,Pbo,Placebo,Pbo,Placebo,USA,8/23/12,-7,105,ALT,Alanine Aminotransfera,CHEMISTRY,19,U/L,6,32,19,19,U/L,6,32,NORMAL,NA,7,42,2012-10-11T09:39,43,,,,,,,,,,,,,,,,,,,lb,Alanine Aminotransfera,19,U/L
WEEK 8,CDISCPILOT01,LB,01-704-1260,1260,8/30/12,1/18/13,8/30/12,11/4/12,NA,1/18/13,NA,NA,704,71,YEARS,F,WHITE,NOT HISPANIC OR LATINO,Pbo,Placebo,Pbo,Placebo,USA,8/23/12,-7,135,ALT,Alanine Aminotransfera,CHEMISTRY,22,U/L,6,32,22,22,U/L,6,32,NORMAL,NA,8,56,2012-10-24T15:45,56,,,,,,,,,,,,,,,,,,,lb,Alanine Aminotransfera,22,U/L
SCREENING 1,CDISCPILOT01,LB,01-704-1266,1266,10/13/13,12/6/13,10/13/13,12/6/13,NA,1/3/14,NA,NA,704,82,YEARS,M,WHITE,NOT HISPANIC OR LATINO,Xan_Hi,Xanomeline High Dose,Xan_Hi,Xanomeline High Dose,USA,10/5/13,-8,3,ALT,Alanine Aminotransfera,CHEMISTRY,12,U/L,6,35,12,12,U/L,6,35,NORMAL,Y,1,-7,2013-10-05T10:00,-8,,,,,,,,,,,,,,,,,,,lb,Alanine Aminotransfera,12,U/L
WEEK 2,CDISCPILOT01,LB,01-704-1266,1266,10/13/13,12/6/13,10/13/13,12/6/13,NA,1/3/14,NA,NA,704,82,YEARS,M,WHITE,NOT HISPANIC OR LATINO,Xan_Hi,Xanomeline High Dose,Xan_Hi,Xanomeline High Dose,USA,10/5/13,-8,40,ALT,Alanine Aminotransfera,CHEMISTRY,19,U/L,6,35,19,19,U/L,6,35,NORMAL,NA,4,14,2013-10-27T10:00,15,,,,,,,,,,,,,,,,,,,lb,Alanine Aminotransfera,19,U/L
WEEK 4,CDISCPILOT01,LB,01-704-1266,1266,10/13/13,12/6/13,10/13/13,12/6/13,NA,1/3/14,NA,NA,704,82,YEARS,M,WHITE,NOT HISPANIC OR LATINO,Xan_Hi,Xanomeline High Dose,Xan_Hi,Xanomeline High Dose,USA,10/5/13,-8,75,ALT,Alanine Aminotransfera,CHEMISTRY,21,U/L,6,35,21,21,U/L,6,35,NORMAL,NA,5,28,2013-11-08T13:00,27,,,,,,,,,,,,,,,,,,,lb,Alanine Aminotransfera,21,U/L
WEEK 6,CDISCPILOT01,LB,01-704-1266,1266,10/13/13,12/6/13,10/13/13,12/6/13,NA,1/3/14,NA,NA,704,82,YEARS,M,WHITE,NOT HISPANIC OR LATINO,Xan_Hi,Xanomeline High Dose,Xan_Hi,Xanomeline High Dose,USA,10/5/13,-8,105,ALT,Alanine Aminotransfera,CHEMISTRY,14,U/L,6,35,14,14,U/L,6,35,NORMAL,NA,7,42,2013-11-22T11:20,41,,,,,,,,,,,,,,,,,,,lb,Alanine Aminotransfera,14,U/L
WEEK 8,CDISCPILOT01,LB,01-704-1266,1266,10/13/13,12/6/13,10/13/13,12/6/13,NA,1/3/14,NA,NA,704,82,YEARS,M,WHITE,NOT HISPANIC OR LATINO,Xan_Hi,Xanomeline High Dose,Xan_Hi,Xanomeline High Dose,USA,10/5/13,-8,135,ALT,Alanine Aminotransfera,CHEMISTRY,19,U/L,6,35,19,19,U/L,6,35,NORMAL,NA,8,56,2013-12-06T13:15,55,,,,,,,,,,,,,,,,,,,lb,Alanine Aminotransfera,19,U/L
SCREENING 1,CDISCPILOT01,LB,01-704-1323,1323,7/8/13,8/8/13,7/8/13,8/5/13,NA,10/1/13,NA,NA,704,68,YEARS,F,WHITE,NOT HISPANIC OR LATINO,Xan_Lo,Xanomeline Low Dose,Xan_Lo,Xanomeline Low Dose,USA,6/13/13,-25,2,ALT,Alanine Aminotransfera,CHEMISTRY,16,U/L,6,32,16,16,U/L,6,32,NORMAL,Y,1,-7,2013-06-12T15:45,-26,,,,,,,,,,,,,,,,,,,lb,Alanine Aminotransfera,16,U/L
WEEK 4,CDISCPILOT01,LB,01-704-1323,1323,7/8/13,8/8/13,7/8/13,8/5/13,NA,10/1/13,NA,NA,704,68,YEARS,F,WHITE,NOT HISPANIC OR LATINO,Xan_Lo,Xanomeline Low Dose,Xan_Lo,Xanomeline Low Dose,USA,6/13/13,-25,38,ALT,Alanine Aminotransfera,CHEMISTRY,13,U/L,6,32,13,13,U/L,6,32,NORMAL,NA,5,28,2013-08-04T13:45,28,,,,,,,,,,,,,,,,,,,lb,Alanine Aminotransfera,13,U/L
SCREENING 1,CDISCPILOT01,LB,01-704-1325,1325,4/23/14,8/6/14,4/23/14,7/4/14,NA,2014-08-06T13:30,NA,NA,704,81,YEARS,M,WHITE,NOT HISPANIC OR LATINO,Xan_Lo,Xanomeline Low Dose,Xan_Lo,Xanomeline Low Dose,USA,4/16/14,-7,3,ALT,Alanine Aminotransfera,CHEMISTRY,17,U/L,6,35,17,17,U/L,6,35,NORMAL,Y,1,-7,2014-04-15T11:37,-8,,,,,,,,,,,,,,,,,,,lb,Alanine Aminotransfera,17,U/L
WEEK 2,CDISCPILOT01,LB,01-704-1325,1325,4/23/14,8/6/14,4/23/14,7/4/14,NA,2014-08-06T13:30,NA,NA,704,81,YEARS,M,WHITE,NOT HISPANIC OR LATINO,Xan_Lo,Xanomeline Low Dose,Xan_Lo,Xanomeline Low Dose,USA,4/16/14,-7,40,ALT,Alanine Aminotransfera,CHEMISTRY,12,U/L,6,35,12,12,U/L,6,35,NORMAL,NA,4,14,2014-05-07T09:57,15,,,,,,,,,,,,,,,,,,,lb,Alanine Aminotransfera,12,U/L
WEEK 4,CDISCPILOT01,LB,01-704-1325,1325,4/23/14,8/6/14,4/23/14,7/4/14,NA,2014-08-06T13:30,NA,NA,704,81,YEARS,M,WHITE,NOT HISPANIC OR LATINO,Xan_Lo,Xanomeline Low Dose,Xan_Lo,Xanomeline Low Dose,USA,4/16/14,-7,77,ALT,Alanine Aminotransfera,CHEMISTRY,15,U/L,6,35,15,15,U/L,6,35,NORMAL,NA,5,28,2014-05-19T15:15,27,,,,,,,,,,,,,,,,,,,lb,Alanine Aminotransfera,15,U/L
WEEK 6,CDISCPILOT01,LB,01-704-1325,1325,4/23/14,8/6/14,4/23/14,7/4/14,NA,2014-08-06T13:30,NA,NA,704,81,YEARS,M,WHITE,NOT HISPANIC OR LATINO,Xan_Lo,Xanomeline Low Dose,Xan_Lo,Xanomeline Low Dose,USA,4/16/14,-7,108,ALT,Alanine Aminotransfera,CHEMISTRY,14,U/L,6,35,14,14,U/L,6,35,NORMAL,NA,7,42,2014-06-04T11:18,43,,,,,,,,,,,,,,,,,,,lb,Alanine Aminotransfera,14,U/L
WEEK 8,CDISCPILOT01,LB,01-704-1325,1325,4/23/14,8/6/14,4/23/14,7/4/14,NA,2014-08-06T13:30,NA,NA,704,81,YEARS,M,WHITE,NOT HISPANIC OR LATINO,Xan_Lo,Xanomeline Low Dose,Xan_Lo,Xanomeline Low Dose,USA,4/16/14,-7,137,ALT,Alanine Aminotransfera,CHEMISTRY,12,U/L,6,35,12,12,U/L,6,35,NORMAL,NA,8,56,2014-06-18T11:15,57,,,,,,,,,,,,,,,,,,,lb,Alanine Aminotransfera,12,U/L
WEEK 16,CDISCPILOT01,LB,01-704-1325,1325,4/23/14,8/6/14,4/23/14,7/4/14,NA,2014-08-06T13:30,NA,NA,704,81,YEARS,M,WHITE,NOT HISPANIC OR LATINO,Xan_Lo,Xanomeline Low Dose,Xan_Lo,Xanomeline Low Dose,USA,4/16/14,-7,167,ALT,Alanine Aminotransfera,CHEMISTRY,12,U/L,6,35,12,12,U/L,6,35,NORMAL,NA,10,112,2014-08-06T13:30,106,,,,,,,,,,,,,,,,,,,lb,Alanine Aminotransfera,12,U/L
SCREENING 1,CDISCPILOT01,LB,01-704-1332,1332,12/9/13,2/16/14,12/9/13,2/14/14,NA,2/24/14,NA,NA,704,80,YEARS,M,WHITE,NOT HISPANIC OR LATINO,Xan_Hi,Xanomeline High Dose,Xan_Hi,Xanomeline High Dose,USA,11/24/13,-15,3,ALT,Alanine Aminotransfera,CHEMISTRY,15,U/L,6,35,15,15,U/L,6,35,NORMAL,Y,1,-7,2013-11-24T15:28,-15,,,,,,,,,,,,,,,,,,,lb,Alanine Aminotransfera,15,U/L
WEEK 2,CDISCPILOT01,LB,01-704-1332,1332,12/9/13,2/16/14,12/9/13,2/14/14,NA,2/24/14,NA,NA,704,80,YEARS,M,WHITE,NOT HISPANIC OR LATINO,Xan_Hi,Xanomeline High Dose,Xan_Hi,Xanomeline High Dose,USA,11/24/13,-15,40,ALT,Alanine Aminotransfera,CHEMISTRY,16,U/L,6,35,16,16,U/L,6,35,NORMAL,NA,4,14,2013-12-23T10:45,15,,,,,,,,,,,,,,,,,,,lb,Alanine Aminotransfera,16,U/L
WEEK 4,CDISCPILOT01,LB,01-704-1332,1332,12/9/13,2/16/14,12/9/13,2/14/14,NA,2/24/14,NA,NA,704,80,YEARS,M,WHITE,NOT HISPANIC OR LATINO,Xan_Hi,Xanomeline High Dose,Xan_Hi,Xanomeline High Dose,USA,11/24/13,-15,75,ALT,Alanine Aminotransfera,CHEMISTRY,12,U/L,6,35,12,12,U/L,6,35,NORMAL,NA,5,28,2014-01-04T14:30,27,,,,,,,,,,,,,,,,,,,lb,Alanine Aminotransfera,12,U/L
WEEK 6,CDISCPILOT01,LB,01-704-1332,1332,12/9/13,2/16/14,12/9/13,2/14/14,NA,2/24/14,NA,NA,704,80,YEARS,M,WHITE,NOT HISPANIC OR LATINO,Xan_Hi,Xanomeline High Dose,Xan_Hi,Xanomeline High Dose,USA,11/24/13,-15,105,ALT,Alanine Aminotransfera,CHEMISTRY,11,U/L,6,35,11,11,U/L,6,35,NORMAL,NA,7,42,2014-01-20T15:30,43,,,,,,,,,,,,,,,,,,,lb,Alanine Aminotransfera,11,U/L
