"USUBJID","SITEID","SITE","AGE","SEX","RACE","ARM","RFSTDTC","SAFFL","AEBODSYS","AEPTCD","AEDECOD","AETERM","ASTDY","AENDY","AESER","AESEV","AEREL","AEOUT","AEONGO","AESTDT","AEENDT","AESEQ"
"01-001","01","Site 01","30","F","Other/Mixed","Placebo","2015-05-21","Y","Musculoskeletal and connective tissu disorders","10065738","Unequal limb length","Difference between the lengths of the arms and/or legs","57","86","N","MODERATE","UNLIKELY RELATED","RECOVERED","N","2015-07-16","2015-08-14","1"
"01-002","01","Site 01","24","F","Black","Treatment A","2015-05-30","Y","Metabolism and nutrition disorders","10021059","Hypophosphatemia","Decreased blood level of phosphate","34","48","N","SEVERE","PROBABLY RELATED","RECOVERED","Y","2015-07-02","2015-07-16","1"
"01-002","01","Site 01","24","F","Black","Treatment A","2015-05-30","Y","Infections and infestations","10061788","Corneal infection","Infection of clear front part of the eyeball (cornea","173","343","N","MILD","NOT RELATED","RECOVERED","Y","2015-11-18","2016-05-06","2"
"01-002","01","Site 01","24","F","Black","Treatment A","2015-05-30","Y","Musculoskeletal and connective tissu disorders","10028411","Myalgia","Muscle pain","182","339","Y","MILD","NOT RELATED","RECOVERED","Y","2015-11-27","2016-05-02","3"
"01-002","01","Site 01","24","F","Black","Treatment A","2015-05-30","Y","Infections and infestations","10065772","Vulval infection","Infection of the vulva (external female genitalia","204","362","N","SEVERE","UNLIKELY RELATED","RECOVERED","Y","2015-12-19","2016-05-25","4"
"01-002","01","Site 01","24","F","Black","Treatment A","2015-05-30","Y","General disorders and administration sit conditions","10058720","Edema trunk","Swelling of the trunk of the body","299","319","N","MILD","POSSIBLY RELATED","RESOLVED, RECOVERED","N","2016-03-23","2016-04-12","5"
"01-003","01","Site 01","43","F","Hispanic","Placebo","2015-08-14","Y","Endocrine disorders","10020705","Hyperparathyroidism","High level of hormone of the parathyroid glands causing high bloo calcium levels (hypercalemia) and low blood phosphate (hypophosphaemia)","29","202","N","MILD","NOT RELATED","RESOLVED, RECOVERED","N","2015-09-11","2016-03-02","1"
"01-003","01","Site 01","43","F","Hispanic","Placebo","2015-08-14","Y","Gastrointestinal disorders","10054520","Oral dysesthesia","Burning or tingling sensation on the lips, tongue, or entire mouth","143","152","N","MODERATE","PROBABLY RELATED","RESOLVED, RECOVERED","N","2016-01-03","2016-01-12","2"
"01-003","01","Site 01","43","F","Hispanic","Placebo","2015-08-14","Y","Gastrointestinal disorders","10055291","Intra-abdominal hemorrhage","Bleeding in the belly","305","313","Y","MODERATE","NOT RELATED","RECOVERED","Y","2016-06-13","2016-06-21","3"
"01-004","01","Site 01","42","F","Hispanic","Placebo","2015-01-13","Y",,,,,,,,,,,,,,
"01-005","01","Site 01","30","M","White","Treatment B","2015-12-27","Y","Neoplasms benign, malignant an unspecified (incl cysts and polyps)","10028533","Myelodysplastic syndrome","Decreased production of blood cells by the bone marrow","218","325","N","MODERATE","POSSIBLY RELATED","RECOVERED","N","2016-07-31","2016-11-15","1"
"01-006","01","Site 01","23","M","White","Placebo","2015-05-12","N",,,,,,,,,,,,,,
"01-007","01","Site 01","20","M","Other/Mixed","Treatment A","2015-09-11","N",,,,,,,,,,,,,,
"01-008","01","Site 01","29","F","Hispanic","Treatment B","2015-02-14","Y","General disorders and administration sit conditions","10008531","Chills","Chills","36","88","N","MILD","POSSIBLY RELATED","RESOLVED WITHOUT SEQUELAE","N","2015-03-21","2015-05-12","1"
"01-009","01","Site 01","53","F","Black","Treatment B","2015-11-22","Y","Cardiac disorders","10003662","Atrial flutter","Abnormally fast regular heartbeat involving the upper chambers o the heart (atria)","63","68","N","MILD","NOT RELATED","RESOLVED, RECOVERED","N","2016-01-23","2016-01-28","1"
"01-009","01","Site 01","53","F","Black","Treatment B","2015-11-22","Y","Nervous system disorders","10034580","Peripheral motor neuropathy","Weakness or paralysis (loss of muscle function) caused by damage to peripheral nerves (those nerves outside of brain and spinal cord)","75","149","N","MILD","POSSIBLY RELATED","RESOLVED, RECOVERED","N","2016-02-04","2016-04-18","2"
"01-009","01","Site 01","53","F","Black","Treatment B","2015-11-22","Y","Gastrointestinal disorders","10038080","Rectal ulcer","Sore (ulcer) in the lining of the rectum","127","280","N","MODERATE","UNLIKELY RELATED","RESOLVED WITHOUT SEQUELAE","Y","2016-03-27","2016-08-27","3"
"01-009","01","Site 01","53","F","Black","Treatment B","2015-11-22","Y","Injury, poisoning and procedura complications","10065847","Intraoperative splenic injury","Damage to the spleen during surgery","275","328","N","MILD","DEFINITELY RELEATED","RECOVERED","Y","2016-08-22","2016-10-14","4"
"01-009","01","Site 01","53","F","Black","Treatment B","2015-11-22","Y","Reproductive system and breast disorders","10036968","Prostatic pain","Pain in the prostate","338","349","N","SEVERE","POSSIBLY RELATED","RECOVERED","N","2016-10-24","2016-11-04","5"
"01-010","01","Site 01","35","F","Black","Treatment B","2015-01-07","Y",,,,,,,,,,,,,,
"01-011","01","Site 01","33","F","Other/Mixed","Treatment A","2015-10-04","Y","Renal and urinary disorders","10065368","Urinary fistula","Abnormal hole between part of the urinary system and anothe organ or tissue","80","85","N","MILD","POSSIBLY RELATED","RECOVERED","N","2015-12-22","2015-12-27","1"
"01-012","01","Site 01","36","M","White","Placebo","2015-04-19","Y",,,,,,,,,,,,,,
"01-013","01","Site 01","40","F","White","Treatment A","2015-07-15","Y","Endocrine disorders","10018746","Growth accelerated","Growth greater than expected for age","262","266","N","MODERATE","UNLIKELY RELATED","RECOVERED","Y","2016-04-01","2016-04-05","1"
"01-013","01","Site 01","40","F","White","Treatment A","2015-07-15","Y","Musculoskeletal and connective tissu disorders","10065783","Musculoskeletal deformity","Deformity of the musculoskeletal system (relating to muscles an the skeleton)","331","351","N","MILD","POSSIBLY RELATED","RESOLVED WITH SEQUELAE","N","2016-06-09","2016-06-29","2"
"01-014","01","Site 01","32","M","White","Treatment B","2015-12-30","Y","Musculoskeletal and connective tissu disorders","10024842","Lordosis","Abnormally increased inward curve of the lumbar spine (just abov the buttocks)","150","150","N","MODERATE","NOT RELATED","RESOLVED, RECOVERED","Y","2016-05-27","2016-05-27","1"
"01-014","01","Site 01","32","M","White","Treatment B","2015-12-30","Y","Injury, poisoning and procedura complications","10006634","Burn","Burn","166","206","N","SEVERE","POSSIBLY RELATED","RESOLVED, RECOVERED","Y","2016-06-12","2016-07-22","2"
"01-014","01","Site 01","32","M","White","Treatment B","2015-12-30","Y","Reproductive system and breast disorders","10018801","Gynecomastia","Enlarged breasts in males","200","361","N","MILD","PROBABLY RELATED","RESOLVED WITHOUT SEQUELAE","N","2016-07-16","2016-12-24","3"
"01-014","01","Site 01","32","M","White","Treatment B","2015-12-30","Y","Nervous system disorders","10003591","Ataxia","Loss of muscle coordination; awkward, uncoordinated walking unsteadiness when walking","250","300","N","MILD","PROBABLY RELATED","RECOVERED","N","2016-09-04","2016-10-24","4"
"01-015","01","Site 01","37","M","Black","Treatment A","2015-07-25","N",,,,,,,,,,,,,,
"01-016","01","Site 01","18","M","Black","Treatment A","2015-12-21","Y","Ear and labyrinth disorders","10047386","Vestibular disorder","Problem of the inner ear that can cause dizziness, imbalance nausea, and vision problems","52","215","N","MILD","DEFINITELY RELEATED","RECOVERED","N","2016-02-10","2016-07-22","1"
"01-016","01","Site 01","18","M","Black","Treatment A","2015-12-21","Y","Injury, poisoning and procedura complications","10055322","Postoperative hemorrhage","Bleeding after surgery","89","303","N","MILD","POSSIBLY RELATED","RECOVERED","Y","2016-03-18","2016-10-18","2"
"01-016","01","Site 01","18","M","Black","Treatment A","2015-12-21","Y","Metabolism and nutrition disorders","10021005","Hypoglycemia","Decreased blood sugar level","110","190","N","MILD","PROBABLY RELATED","RECOVERED","Y","2016-04-08","2016-06-27","3"
"01-017","01","Site 01","40","M","Hispanic","Treatment A","2015-02-12","Y","Nervous system disorders","10001949","Amnesia","Memory loss","85","165","N","MODERATE","UNLIKELY RELATED","RESOLVED, RECOVERED","Y","2015-05-07","2015-07-26","1"
"01-017","01","Site 01","40","M","Hispanic","Treatment A","2015-02-12","Y","Endocrine disorders","10001367","Adrenal insufficiency","Inability of the adrenal glands (triangle-shaped glands located on top of the kidneys) to produce a normal quantity of hormones","258","306","Y","MODERATE","POSSIBLY RELATED","RESOLVED WITH SEQUELAE","N","2015-10-27","2015-12-14","2"
"01-017","01","Site 01","40","M","Hispanic","Treatment A","2015-02-12","Y","Reproductive system and breast disorders","10039757","Scrotal pain","Pain of  the scrotum or its contents (testes)","277","342","N","MODERATE","UNLIKELY RELATED","RECOVERED","N","2015-11-15","2016-01-19","3"
"01-018","01","Site 01","18","M","Hispanic","Treatment B","2015-12-13","Y","Infections and infestations","10046914","Vaginal infection","Vaginal infection","24","72","N","MODERATE","NOT RELATED","RESOLVED WITHOUT SEQUELAE","N","2016-01-05","2016-02-22","1"
"01-018","01","Site 01","18","M","Hispanic","Treatment B","2015-12-13","Y","Reproductive system and breast disorders","10033279","Ovarian rupture","Tearing or disruption of the ovarian tissue","104","360","Y","MILD","POSSIBLY RELATED","RECOVERED","N","2016-03-25","2016-12-06","2"
"01-018","01","Site 01","18","M","Hispanic","Treatment B","2015-12-13","Y","Renal and urinary disorders","10046593","Urinary urgency","Increased need to urinate","174","182","N","MODERATE","NOT RELATED","RESOLVED WITHOUT SEQUELAE","Y","2016-06-03","2016-06-11","3"
"01-018","01","Site 01","18","M","Hispanic","Treatment B","2015-12-13","Y","Skin and subcutaneous tissue disorders","10021013","Hypohidrosis","Reduced sweating","267","360","N","MILD","PROBABLY RELATED","RESOLVED WITHOUT SEQUELAE","Y","2016-09-04","2016-12-06","4"
"01-018","01","Site 01","18","M","Hispanic","Treatment B","2015-12-13","Y","Respiratory, thoracic and mediastina disorders","10020039","Hiccups","Hiccups","322","322","N","MILD","NOT RELATED","RECOVERED","Y","2016-10-29","2016-10-29","5"
"01-019","01","Site 01","43","M","Black","Treatment B","2015-06-26","Y","Endocrine disorders","10011655","Cushingoid","Problem characterized by signs that resemble Cushing's disease o syndrome due to too much steroids","124","245","N","MODERATE","NOT RELATED","RESOLVED, RECOVERED","N","2015-10-27","2016-02-25","1"
"01-019","01","Site 01","43","M","Black","Treatment B","2015-06-26","Y","Metabolism and nutrition disorders","10021038","Hyponatremia","Decreased blood level of sodium","166","237","N","MILD","PROBABLY RELATED","RESOLVED WITHOUT SEQUELAE","Y","2015-12-08","2016-02-17","2"
"01-019","01","Site 01","43","M","Black","Treatment B","2015-06-26","Y","Reproductive system and breast disorders","10014326","Ejaculation disorder","Problems related to ejaculation","228","279","N","MODERATE","NOT RELATED","RESOLVED, RECOVERED","Y","2016-02-08","2016-03-30","3"
"01-019","01","Site 01","43","M","Black","Treatment B","2015-06-26","Y","Reproductive system and breast disorders","10033314","Ovulation pain","Pain on one side of the abdomen (belly) around the time o ovulation","294","336","N","MODERATE","DEFINITELY RELEATED","RECOVERED","Y","2016-04-14","2016-05-26","4"
"01-019","01","Site 01","43","M","Black","Treatment B","2015-06-26","Y","Investigations","10059895","Urine output decreased","Abnormally low urine outpu","357","360","N","MILD","NOT RELATED","RESOLVED, RECOVERED","Y","2016-06-16","2016-06-19","5"
"01-020","01","Site 01","47","M","Other/Mixed","Treatment B","2015-04-25","Y",,,,,,,,,,,,,,
"01-021","01","Site 01","23","F","Black","Treatment A","2015-10-04","Y","Infections and infestations","10005047","Bladder infection","Bladder infection","265","267","N","MODERATE","NOT RELATED","RESOLVED, RECOVERED","N","2016-06-24","2016-06-26","1"
"01-022","01","Site 01","27","F","Black","Treatment A","2015-10-01","Y","Cardiac disorders","10042604","Supraventricular tachycardia","Fast heartbeat usually originating in an area located above th ventricles","114","329","N","MILD","UNLIKELY RELATED","RECOVERED","Y","2016-01-22","2016-08-24","1"
"01-022","01","Site 01","27","F","Black","Treatment A","2015-10-01","Y","Metabolism and nutrition disorders","10020587","Hypercalcemia","Increased blood level of calcium","240","273","Y","MODERATE","POSSIBLY RELATED","RECOVERED","N","2016-05-27","2016-06-29","2"
"01-022","01","Site 01","27","F","Black","Treatment A","2015-10-01","Y","Injury, poisoning and procedura complications","10065887","Vaginal anastomotic leak","Leakage from the vagina due to breakdown of a anastomosi (surgical connection between two body structures)","274","362","N","MILD","POSSIBLY RELATED","RESOLVED WITHOUT SEQUELAE","N","2016-06-30","2016-09-26","3"
"01-022","01","Site 01","27","F","Black","Treatment A","2015-10-01","Y","Infections and infestations","10023216","Joint infection","Joint infection","316","333","N","MILD","NOT RELATED","RESOLVED WITH SEQUELAE","N","2016-08-11","2016-08-28","4"
"01-023","01","Site 01","37","F","Other/Mixed","Treatment B","2015-10-01","Y","Blood and lymphatic system disorders","10019491","Hemolysis","Destruction of red blood cells","267","308","N","SEVERE","UNLIKELY RELATED","RECOVERED","Y","2016-06-23","2016-08-03","1"
"01-024","01","Site 01","48","M","Black","Treatment A","2015-03-30","Y",,,,,,,,,,,,,,
"01-025","01","Site 01","21","M","White","Placebo","2015-06-22","Y","Eye disorders","10015958","Eye pain","Eye pain","7","222","N","MILD","NOT RELATED","RESOLVED, RECOVERED","N","2015-06-28","2016-01-29","1"
"01-025","01","Site 01","21","M","White","Placebo","2015-06-22","Y","Gastrointestinal disorders","10042112","Stomach pain","Stomach pain","213","301","N","MILD","POSSIBLY RELATED","RECOVERED","Y","2016-01-20","2016-04-17","2"
"01-025","01","Site 01","21","M","White","Placebo","2015-06-22","Y","Metabolism and nutrition disorders","10020680","Hypernatremia","Increased blood level of sodium","225","352","N","MILD","UNLIKELY RELATED","RECOVERED","Y","2016-02-01","2016-06-07","3"
"01-025","01","Site 01","21","M","White","Placebo","2015-06-22","Y","Injury, poisoning and procedura complications","10062548","Tracheal hemorrhage","Bleeding in the trachea (windpipe)","280","306","N","MILD","UNLIKELY RELATED","RECOVERED","Y","2016-03-27","2016-04-22","4"
"01-026","01","Site 01","25","F","White","Treatment A","2015-02-19","Y","Gastrointestinal disorders","10061970","Gastric stenosis","Narrowing of the stomach","60","205","N","MILD","NOT RELATED","RESOLVED WITHOUT SEQUELAE","Y","2015-04-19","2015-09-11","1"
"01-026","01","Site 01","25","F","White","Treatment A","2015-02-19","Y","Gastrointestinal disorders","10010774","Constipation","Constipation","185","186","N","SEVERE","NOT RELATED","RECOVERED","N","2015-08-22","2015-08-23","2"
"01-026","01","Site 01","25","F","White","Treatment A","2015-02-19","Y","Respiratory, thoracic and mediastina disorders","10050816","Tracheal stenosis","Narrowing of the windpipe","298","305","N","MODERATE","DEFINITELY RELEATED","RESOLVED, RECOVERED","N","2015-12-13","2015-12-20","3"
"01-026","01","Site 01","25","F","White","Treatment A","2015-02-19","Y","Injury, poisoning and procedura complications","10016173","Fall","Fall","360","360","N","MILD","UNLIKELY RELATED","RECOVERED","N","2016-02-13","2016-02-13","4"
"01-027","01","Site 01","36","F","Hispanic","Treatment B","2015-03-08","Y","Immune system disorders","10061664","Autoimmune disorder","Destruction of a person's own healthy body tissue by their ow immune system","50","91","N","MILD","DEFINITELY RELEATED","RESOLVED WITHOUT SEQUELAE","Y","2015-04-26","2015-06-06","1"
"01-027","01","Site 01","36","F","Hispanic","Treatment B","2015-03-08","Y","Gastrointestinal disorders","10065713","Gastric fistula","Hole between the stomach and another organ","76","133","N","MODERATE","NOT RELATED","RESOLVED WITHOUT SEQUELAE","Y","2015-05-22","2015-07-18","2"
"01-027","01","Site 01","36","F","Hispanic","Treatment B","2015-03-08","Y","Skin and subcutaneous tissue disorders","10054541","Periorbital edema","Swelling in or around the eyelid","97","163","N","MODERATE","UNLIKELY RELATED","RESOLVED WITH SEQUELAE","N","2015-06-12","2015-08-17","3"
"01-027","01","Site 01","36","F","Hispanic","Treatment B","2015-03-08","Y","Hepatobiliary disorders","10017636","Gallbladder obstruction","Blockage in the bile ducts","268","294","N","MILD","DEFINITELY RELEATED","RESOLVED WITHOUT SEQUELAE","N","2015-11-30","2015-12-26","4"
"01-027","01","Site 01","36","F","Hispanic","Treatment B","2015-03-08","Y","Respiratory, thoracic and mediastina disorders","10059639","Laryngeal obstruction","Blockage of or in the voice box","360","362","N","MILD","DEFINITELY RELEATED","RESOLVED WITH SEQUELAE","N","2016-03-01","2016-03-03","5"
"01-028","01","Site 01","40","F","Other/Mixed","Treatment B","2015-06-01","Y","Nervous system disorders","10065784","Central nervous system necrosis","Destruction or death of tissue of the brain and/or spinal cor","30","342","N","MILD","POSSIBLY RELATED","RECOVERED","Y","2015-06-30","2016-05-07","1"
"01-028","01","Site 01","40","F","Other/Mixed","Treatment B","2015-06-01","Y","Gastrointestinal disorders","10065730","Ileal obstruction","Blockage in an area of the small bowel (ileum","98","195","N","SEVERE","PROBABLY RELATED","RESOLVED WITHOUT SEQUELAE","N","2015-09-06","2015-12-12","2"
"01-028","01","Site 01","40","F","Other/Mixed","Treatment B","2015-06-01","Y","Gastrointestinal disorders","10013946","Dyspepsia","Heartburn","226","364","N","MODERATE","UNLIKELY RELATED","RECOVERED","N","2016-01-12","2016-05-29","3"
"01-028","01","Site 01","40","F","Other/Mixed","Treatment B","2015-06-01","Y","Nervous system disorders","10013911","Dysgeusia","Taste changes","243","342","Y","MODERATE","UNLIKELY RELATED","RECOVERED","Y","2016-01-29","2016-05-07","4"
"01-028","01","Site 01","40","F","Other/Mixed","Treatment B","2015-06-01","Y","Metabolism and nutrition disorders","10021005","Hypoglycemia","Decreased blood sugar level","336","337","N","MILD","NOT RELATED","RESOLVED, RECOVERED","N","2016-05-01","2016-05-02","5"
"01-029","01","Site 01","50","M","Black","Placebo","2015-06-11","Y","Reproductive system and breast disorders","10046901","Vaginal discharge","Secretion from the vagina","219","290","N","MILD","UNLIKELY RELATED","RECOVERED","N","2016-01-15","2016-03-26","1"
"01-030","01","Site 01","25","M","Other/Mixed","Treatment A","2015-01-18","N",,,,,,,,,,,,,,
"02-001","02","Site 02","20","M","White","Treatment A","2015-12-11","N",,,,,,,,,,,,,,
"02-002","02","Site 02","18","M","Hispanic","Treatment A","2015-09-21","Y","Hepatobiliary disorders","10019705","Hepatic pain","Liver pain","63","115","N","MILD","NOT RELATED","RESOLVED WITHOUT SEQUELAE","N","2015-11-22","2016-01-13","1"
"02-003","02","Site 02","27","F","Hispanic","Placebo","2015-04-27","Y","Gastrointestinal disorders","10041133","Small intestine ulcer","Sore (ulcer) in the lining of the small bowe","22","100","N","MODERATE","POSSIBLY RELATED","RECOVERED","N","2015-05-18","2015-08-04","1"
"02-003","02","Site 02","27","F","Hispanic","Placebo","2015-04-27","Y","Infections and infestations","10065772","Vulval infection","Infection of the vulva (external female genitalia","201","361","N","MODERATE","UNLIKELY RELATED","RESOLVED WITH SEQUELAE","N","2015-11-13","2016-04-21","2"
"02-003","02","Site 02","27","F","Hispanic","Placebo","2015-04-27","Y","Nervous system disorders","10024382","Leukoencephalopathy","Progressive necrosis (tissue death) of a part (the white matter) o the brain without inflammation (swelling and redness)","257","305","N","MODERATE","DEFINITELY RELEATED","RESOLVED, RECOVERED","Y","2016-01-08","2016-02-25","3"
"02-003","02","Site 02","27","F","Hispanic","Placebo","2015-04-27","Y","Nervous system disorders","10008164","Cerebrospinal fluid leakage","Leak of cerebrospinal fluid (fluid that surrounds the brain and spin cord)","261","306","N","MILD","POSSIBLY RELATED","RESOLVED WITHOUT SEQUELAE","N","2016-01-12","2016-02-26","4"
"02-003","02","Site 02","27","F","Hispanic","Placebo","2015-04-27","Y","Cardiac disorders","10040741","Sinus bradycardia","Slow heartbeat; regular rhythm","307","309","N","SEVERE","NOT RELATED","RECOVERED","N","2016-02-27","2016-02-29","5"
"02-004","02","Site 02","21","F","White","Placebo","2015-09-30","Y","Pregnancy, puerperium and perinata conditions","10045542","Unintended pregnancy","Unexpected pregnancy","144","306","N","SEVERE","NOT RELATED","RECOVERED","Y","2016-02-20","2016-07-31","1"
"02-004","02","Site 02","21","F","White","Placebo","2015-09-30","Y","Endocrine disorders","10020705","Hyperparathyroidism","High level of hormone of the parathyroid glands causing high bloo calcium levels (hypercalemia) and low blood phosphate (hypophosphaemia)","157","282","N","SEVERE","DEFINITELY RELEATED","RECOVERED","N","2016-03-04","2016-07-07","2"
"02-004","02","Site 02","21","F","White","Placebo","2015-09-30","Y","Infections and infestations","10023874","Laryngitis","Inflammation (swelling and redness) of the voice box (larynx) that i usually associated with hoarseness or loss of voice","267","295","N","MILD","PROBABLY RELATED","RECOVERED","N","2016-06-22","2016-07-20","3"
"02-004","02","Site 02","21","F","White","Placebo","2015-09-30","Y","Metabolism and nutrition disorders","10052426","Glucose intolerance","Abnormal control of blood sugar leve","267","357","N","MODERATE","PROBABLY RELATED","RESOLVED, RECOVERED","Y","2016-06-22","2016-09-20","4"
"02-005","02","Site 02","36","M","Other/Mixed","Treatment B","2015-05-14","Y","Nervous system disorders","10028524","Myelitis","Inflammation (swelling and redness) of the spinal cor","287","331","N","MILD","DEFINITELY RELEATED","RECOVERED","N","2016-02-24","2016-04-08","1"
"02-006","02","Site 02","36","M","White","Placebo","2015-06-04","Y","Skin and subcutaneous tissue disorders","10051837","Skin induration","Hardening of an area of skin","24","349","N","MILD","NOT RELATED","RESOLVED WITHOUT SEQUELAE","Y","2015-06-27","2016-05-17","1"
"02-006","02","Site 02","36","M","White","Placebo","2015-06-04","Y","Infections and infestations","10061640","Anorectal infection","Infection of the anal or rectal area","191","216","N","MILD","UNLIKELY RELATED","RESOLVED, RECOVERED","Y","2015-12-11","2016-01-05","2"
"02-007","02","Site 02","54","M","White","Treatment A","2015-11-18","Y",,,,,,,,,,,,,,
"02-008","02","Site 02","31","M","Hispanic","Treatment B","2015-09-01","N",,,,,,,,,,,,,,
"02-009","02","Site 02","21","F","Other/Mixed","Treatment B","2015-08-17","Y","Skin and subcutaneous tissue disorders","10016241","Fat atrophy","Shrinking of body fat","126","254","N","MILD","UNLIKELY RELATED","RECOVERED","N","2015-12-20","2016-04-26","1"
"02-009","02","Site 02","21","F","Other/Mixed","Treatment B","2015-08-17","Y","Renal and urinary disorders","10037032","Proteinuria","More protein leaking into the urine than usual, often a sign of kidne disease","144","323","N","MILD","NOT RELATED","RECOVERED","Y","2016-01-07","2016-07-04","2"
"02-009","02","Site 02","21","F","Other/Mixed","Treatment B","2015-08-17","Y","Pregnancy, puerperium and perinata conditions","10036595","Premature delivery","Birth before the 9th month of pregnancy (the normal length o pregnancy)","151","262","Y","MODERATE","NOT RELATED","RESOLVED WITHOUT SEQUELAE","Y","2016-01-14","2016-05-04","3"
"02-009","02","Site 02","21","F","Other/Mixed","Treatment B","2015-08-17","Y","Respiratory, thoracic and mediastina disorders","10040975","Sleep apnea","Stoppage of breathing for short periods while sleeping","218","284","N","MODERATE","NOT RELATED","RECOVERED","N","2016-03-21","2016-05-26","4"
"02-010","02","Site 02","38","F","Hispanic","Treatment B","2015-01-12","Y","Nervous system disorders","10029223","Neuralgia","Nerve pain","11","216","Y","MODERATE","POSSIBLY RELATED","RECOVERED","N","2015-01-22","2015-08-15","1"
"02-010","02","Site 02","38","F","Hispanic","Treatment B","2015-01-12","Y","Musculoskeletal and connective tissu disorders","10033425","Pain in extremity","Leg and/or arm pain","28","144","N","MILD","UNLIKELY RELATED","RESOLVED WITHOUT SEQUELAE","Y","2015-02-08","2015-06-04","2"
"02-010","02","Site 02","38","F","Hispanic","Treatment B","2015-01-12","Y","Gastrointestinal disorders","10017815","Gastric perforation","Hole in the stomach","55","107","N","SEVERE","POSSIBLY RELATED","RESOLVED WITHOUT SEQUELAE","Y","2015-03-07","2015-04-28","3"
"02-010","02","Site 02","38","F","Hispanic","Treatment B","2015-01-12","Y","Psychiatric disorders","10015533","Euphoria","Exaggerated feeling of well being","153","254","N","MILD","PROBABLY RELATED","RECOVERED","N","2015-06-13","2015-09-22","4"
"02-010","02","Site 02","38","F","Hispanic","Treatment B","2015-01-12","Y","Musculoskeletal and connective tissu disorders","10065775","Abdominal soft tissue necrosis","Death of tissue of the belly wall","269","285","N","MILD","DEFINITELY RELEATED","RESOLVED WITHOUT SEQUELAE","N","2015-10-07","2015-10-23","5"
"02-011","02","Site 02","36","F","White","Treatment B","2015-07-27","N",,,,,,,,,,,,,,
"02-012","02","Site 02","40","F","Other/Mixed","Treatment A","2015-10-09","Y","General disorders and administration site conditions","10051792","Infusion related reaction","Reaction that can occur during or following infusion of the drug The reaction may include fever, chills, rash, low blood pressure, and difficulty breathing.","271","292","N","MILD","NOT RELATED","RESOLVED, RECOVERED","N","2016-07-05","2016-07-26","1"
"02-012","02","Site 02","40","F","Other/Mixed","Treatment A","2015-10-09","Y","Reproductive system and breast disorders","10013941","Dyspareunia","Painful sexual intercourse","302","322","N","MODERATE","NOT RELATED","RESOLVED WITHOUT SEQUELAE","N","2016-08-05","2016-08-25","2"
"02-012","02","Site 02","40","F","Other/Mixed","Treatment A","2015-10-09","Y","Musculoskeletal and connective tissu disorders","10065780","Muscle weakness left-sided","Muscle weakness of the left side of the body","344","347","N","MODERATE","NOT RELATED","RECOVERED","N","2016-09-16","2016-09-19","3"
"02-013","02","Site 02","46","M","Black","Treatment B","2015-03-09","Y","Ear and labyrinth disorders","10014020","Ear pain","Earache or ear pain","4","221","N","MILD","NOT RELATED","RESOLVED, RECOVERED","N","2015-03-12","2015-10-15","1"
"02-013","02","Site 02","46","M","Black","Treatment B","2015-03-09","Y","Gastrointestinal disorders","10066874","Gastroesophageal reflux disease","Excess amount of gastric juice flowing back (refluxes) into th esophagus (gullet or the tube that goes from mouth to stomach through which food passes), causing heartburn and possibly damaging the esophagus","140","280","N","MILD","UNLIKELY RELATED","RECOVERED","Y","2015-07-26","2015-12-13","2"
"02-013","02","Site 02","46","M","Black","Treatment B","2015-03-09","Y","Investigations","10019150","Haptoglobin decreased","Decrease of a blood protein called haptoglobin which shows tha red blood cells are being destroyed","164","326","N","MODERATE","UNLIKELY RELATED","RECOVERED","N","2015-08-19","2016-01-28","3"
"02-013","02","Site 02","46","M","Black","Treatment B","2015-03-09","Y","Renal and urinary disorders","10064848","Chronic kidney disease","Gradual (and usually permanent) loss of kidney functio","272","361","N","SEVERE","UNLIKELY RELATED","RESOLVED, RECOVERED","N","2015-12-05","2016-03-03","4"
"02-014","02","Site 02","19","F","Other/Mixed","Treatment A","2015-04-13","Y","Investigations","10005364","Blood bilirubin increased","Increased blood level of a liver pigment (bilirubin) often a sign o liver problems","184","354","N","MODERATE","PROBABLY RELATED","RECOVERED","Y","2015-10-13","2016-03-31","1"
"02-014","02","Site 02","19","F","Other/Mixed","Treatment A","2015-04-13","Y","Vascular disorders","10047115","Vasculitis","Inflammation (swelling and redness) of the blood vessel","218","226","N","MILD","UNLIKELY RELATED","RECOVERED","N","2015-11-16","2015-11-24","2"
"02-015","02","Site 02","40","M","Hispanic","Treatment A","2015-04-28","Y","Gastrointestinal disorders","10015384","Esophageal hemorrhage","Bleeding in the esophagus (gullet or the tube that goes from th mouth to the stomach)","8","128","N","MILD","NOT RELATED","RESOLVED, RECOVERED","Y","2015-05-05","2015-09-02","1"
"02-015","02","Site 02","40","M","Hispanic","Treatment A","2015-04-28","Y","Nervous system disorders","10010250","Concentration impairmen","Decreased ability to concentrate","186","246","N","MILD","UNLIKELY RELATED","RESOLVED, RECOVERED","N","2015-10-30","2015-12-29","2"
"02-015","02","Site 02","40","M","Hispanic","Treatment A","2015-04-28","Y","Nervous system disorders","10051272","Facial muscle weakness","Weakness of facial muscles","239","323","N","MILD","POSSIBLY RELATED","RESOLVED WITHOUT SEQUELAE","N","2015-12-22","2016-03-15","3"
"02-015","02","Site 02","40","M","Hispanic","Treatment A","2015-04-28","Y","Nervous system disorders","10042772","Syncope","Fainting","280","305","N","MILD","PROBABLY RELATED","RECOVERED","Y","2016-02-01","2016-02-26","4"
"02-015","02","Site 02","40","M","Hispanic","Treatment A","2015-04-28","Y","Gastrointestinal disorders","10062570","Enterovesical fistula","Hole between the urinary bladder and some part of the intestines","329","349","N","MILD","UNLIKELY RELATED","RESOLVED WITHOUT SEQUELAE","N","2016-03-21","2016-04-10","5"
"02-016","02","Site 02","29","M","White","Placebo","2015-02-24","Y","Eye disorders","10033703","Papilledema","Swelling around the nerve responsible for sigh","18","105","N","MILD","UNLIKELY RELATED","RESOLVED WITHOUT SEQUELAE","N","2015-03-13","2015-06-08","1"
"02-016","02","Site 02","29","M","White","Placebo","2015-02-24","Y","Metabolism and nutrition disorders","10021028","Hypomagnesemia","Decreased blood level of magnesium","92","151","N","SEVERE","PROBABLY RELATED","RECOVERED","N","2015-05-26","2015-07-24","2"
"02-016","02","Site 02","29","M","White","Placebo","2015-02-24","Y","Renal and urinary disorders","10046628","Urine discoloration","Change in color of the urine","261","278","N","MILD","POSSIBLY RELATED","RESOLVED, RECOVERED","N","2015-11-11","2015-11-28","3"
"02-016","02","Site 02","29","M","White","Placebo","2015-02-24","Y","Nervous system disorders","10019211","Headache","Headache or head pain","279","322","N","MILD","NOT RELATED","RESOLVED WITHOUT SEQUELAE","N","2015-11-29","2016-01-11","4"
"02-017","02","Site 02","33","M","White","Placebo","2015-04-06","Y","Infections and infestations","10051472","Periorbital infection","Infection of the soft tissues around the eye socke","51","178","N","MODERATE","UNLIKELY RELATED","RESOLVED, RECOVERED","Y","2015-05-26","2015-09-30","1"
"02-017","02","Site 02","33","M","White","Placebo","2015-04-06","Y","Respiratory, thoracic and mediastina disorders","10065900","Tracheal mucositis","Irritation or sores in the lining of the windpipe","65","361","N","MILD","NOT RELATED","RECOVERED","N","2015-06-09","2016-03-31","2"
"02-017","02","Site 02","33","M","White","Placebo","2015-04-06","Y","Vascular disorders","10025233","Lymphedema","Swelling of tissues due to excessive collection of lymph (the clea fluid that is collected from tissues throughout the body) due to a blockage in the lymphatic vessels","182","291","N","MODERATE","UNLIKELY RELATED","RECOVERED","N","2015-10-04","2016-01-21","3"
"02-017","02","Site 02","33","M","White","Placebo","2015-04-06","Y","Gastrointestinal disorders","10013950","Dysphagia","Difficulty swallowing","320","352","N","MILD","POSSIBLY RELATED","RESOLVED, RECOVERED","N","2016-02-19","2016-03-22","4"
"02-017","02","Site 02","33","M","White","Placebo","2015-04-06","Y","Reproductive system and breast disorders","10013941","Dyspareunia","Painful sexual intercourse","332","332","Y","MILD","PROBABLY RELATED","RECOVERED","Y","2016-03-02","2016-03-02","5"
"02-018","02","Site 02","19","F","White","Placebo","2015-11-23","Y",,,,,,,,,,,,,,
"02-019","02","Site 02","49","F","Black","Placebo","2015-02-17","Y","Injury, poisoning and procedural complications","10065892","Small intestinal anastomotic leak","Leakage from the small bowel due to breakdown of a anastomosis (surgical connection between two body structures)","40","183","N","MODERATE","UNLIKELY RELATED","RECOVERED","Y","2015-03-28","2015-08-18","1"
"02-019","02","Site 02","49","F","Black","Placebo","2015-02-17","Y","Musculoskeletal and connective tissu disorders","10065895","Muscle weakness upper limb","Muscle weakness of arms","78","177","N","MODERATE","UNLIKELY RELATED","RECOVERED","N","2015-05-05","2015-08-12","2"
"02-019","02","Site 02","49","F","Black","Placebo","2015-02-17","Y","Renal and urinary disorders","10037032","Proteinuria","More protein leaking into the urine than usual, often a sign of kidne disease","341","364","N","SEVERE","UNLIKELY RELATED","RESOLVED WITH SEQUELAE","N","2016-01-23","2016-02-15","3"
"02-020","02","Site 02","48","F","Black","Treatment A","2015-04-12","Y","Infections and infestations","10062112","Splenic infection","Infection of the spleen","21","65","N","SEVERE","UNLIKELY RELATED","RESOLVED, RECOVERED","N","2015-05-02","2015-06-15","1"
"02-020","02","Site 02","48","F","Black","Treatment A","2015-04-12","Y","Reproductive system and breast disorders","10065811","Uterine fistula","Hole between uterus (womb) and another organ","99","127","N","MODERATE","NOT RELATED","RESOLVED WITHOUT SEQUELAE","N","2015-07-19","2015-08-16","2"
"02-020","02","Site 02","48","F","Black","Treatment A","2015-04-12","Y","Musculoskeletal and connective tissue disorders","10023509","Kyphosis","Abnormally increased outward curving of the spine at the level o the ribs that causes a bowing of the back, which leads to a hunchback or slouching posture","298","345","N","MODERATE","UNLIKELY RELATED","RECOVERED","N","2016-02-03","2016-03-21","3"
"02-020","02","Site 02","48","F","Black","Treatment A","2015-04-12","Y","Investigations","10022402","INR increased","Increased INR (measure of the ability of the blood to clot properly which increases the risk of bleeding","307","337","Y","MILD","UNLIKELY RELATED","RESOLVED, RECOVERED","Y","2016-02-12","2016-03-13","4"
"02-020","02","Site 02","48","F","Black","Treatment A","2015-04-12","Y","Gastrointestinal disorders","10065722","Anal necrosis","Death of tissue of the anus","356","363","N","MILD","NOT RELATED","RECOVERED","Y","2016-04-01","2016-04-08","5"
"02-021","02","Site 02","23","F","White","Treatment A","2015-07-14","Y","Respiratory, thoracic and mediastina disorders","10020201","Hoarseness","Hoarseness","224","232","N","MILD","UNLIKELY RELATED","RESOLVED WITH SEQUELAE","Y","2016-02-22","2016-03-01","1"
"02-021","02","Site 02","23","F","White","Treatment A","2015-07-14","Y","Eye disorders","10038897","Retinal tear","Small tearing of the retina (a multi-layered sensory tissue that line the back of the eye responsible for sight)","248","339","N","SEVERE","UNLIKELY RELATED","RESOLVED, RECOVERED","N","2016-03-17","2016-06-16","2"
"02-022","02","Site 02","53","F","Black","Treatment B","2015-10-02","Y","Respiratory, thoracic and mediastina disorders","10047681","Voice alteration","Voice change","70","165","Y","MILD","POSSIBLY RELATED","RESOLVED, RECOVERED","N","2015-12-10","2016-03-14","1"
"02-022","02","Site 02","53","F","Black","Treatment B","2015-10-02","Y","Injury, poisoning and procedura complications","10065803","Kidney anastomotic leak","Leakage from the kidneys due to breakdown of a anastomosi (surgical connection between two body structures)","207","310","Y","MODERATE","NOT RELATED","RECOVERED","N","2016-04-25","2016-08-06","2"
"02-023","02","Site 02","20","M","Other/Mixed","Treatment B","2015-06-06","Y","Skin and subcutaneous tissue disorders","10051837","Skin induration","Hardening of an area of skin","125","348","N","MILD","NOT RELATED","RECOVERED","Y","2015-10-08","2016-05-18","1"
"02-024","02","Site 02","45","M","White","Treatment A","2015-03-01","Y","Nervous system disorders","10051272","Facial muscle weakness","Weakness of facial muscles","76","247","N","MILD","DEFINITELY RELEATED","RESOLVED WITHOUT SEQUELAE","N","2015-05-15","2015-11-02","1"
"02-024","02","Site 02","45","M","White","Treatment A","2015-03-01","Y","Injury, poisoning and procedura complications","10061103","Dermatitis radiation","Redness, flaking or shedding of skin in the radiation treatment area","141","333","N","MILD","DEFINITELY RELEATED","RESOLVED, RECOVERED","Y","2015-07-19","2016-01-27","2"
"02-024","02","Site 02","45","M","White","Treatment A","2015-03-01","Y","Reproductive system and breast disorders","10046901","Vaginal discharge","Secretion from the vagina","151","298","N","MODERATE","NOT RELATED","RESOLVED WITH SEQUELAE","N","2015-07-29","2015-12-23","3"
"02-024","02","Site 02","45","M","White","Treatment A","2015-03-01","Y","Injury, poisoning and procedura complications","10046810","Uterine perforation","Hole in the uterus (womb)","157","310","N","MILD","NOT RELATED","RECOVERED","Y","2015-08-04","2016-01-04","4"
"02-024","02","Site 02","45","M","White","Treatment A","2015-03-01","Y","Infections and infestations","10062255","Soft tissue infection","Infection of soft body tissue","158","326","Y","MODERATE","UNLIKELY RELATED","RECOVERED","N","2015-08-05","2016-01-20","5"
"02-025","02","Site 02","42","M","Black","Treatment B","2015-09-27","Y","Respiratory, thoracic and mediastina disorders","10065880","Laryngeal mucositis","Irritation or sores in the lining of the voice box","39","289","N","MODERATE","UNLIKELY RELATED","RECOVERED","Y","2015-11-04","2016-07-11","1"
"02-025","02","Site 02","42","M","Black","Treatment B","2015-09-27","Y","Cardiac disorders","10069501","Left ventricular systolic dysfunction","Decrease in heart's ability to pump blood during the ""active"" phas of the heartbeat (systole)","213","314","N","MODERATE","NOT RELATED","RESOLVED WITHOUT SEQUELAE","N","2016-04-26","2016-08-05","2"
"02-025","02","Site 02","42","M","Black","Treatment B","2015-09-27","Y","Renal and urinary disorders","10019489","Hemoglobinuria","Presence of free hemoglobin (the blood protein that carries oxygen in the urine","253","307","N","MILD","NOT RELATED","RESOLVED WITHOUT SEQUELAE","Y","2016-06-05","2016-07-29","3"
"02-026","02","Site 02","36","F","Black","Treatment A","2015-07-12","Y","Eye disorders","10005886","Blurred vision","Blurred vision","242","249","Y","MILD","POSSIBLY RELATED","RECOVERED","Y","2016-03-09","2016-03-16","1"
"02-027","02","Site 02","27","F","Black","Placebo","2015-04-03","Y","Vascular disorders","10025233","Lymphedema","Swelling of tissues due to excessive collection of lymph (the clea fluid that is collected from tissues throughout the body) due to a blockage in the lymphatic vessels","77","262","N","MILD","NOT RELATED","RECOVERED","Y","2015-06-18","2015-12-20","1"
"02-027","02","Site 02","27","F","Black","Placebo","2015-04-03","Y","Investigations","10047896","Weight gain","Weight gain","208","234","N","MODERATE","POSSIBLY RELATED","RESOLVED, RECOVERED","N","2015-10-27","2015-11-22","2"
"02-027","02","Site 02","27","F","Black","Placebo","2015-04-03","Y","Eye disorders","10010741","Conjunctivitis","Inflammation (swelling and redness) of the conjunctiva (th outermost layer of the eye and the inner surface of the eyelids). Commonly called ""pink eye"".","237","287","N","MILD","UNLIKELY RELATED","RESOLVED, RECOVERED","N","2015-11-25","2016-01-14","3"
"02-028","02","Site 02","29","M","Hispanic","Placebo","2015-04-25","Y","Renal and urinary disorders","10063575","Bladder perforation","Hole in the bladder","2","77","Y","MODERATE","POSSIBLY RELATED","RESOLVED, RECOVERED","Y","2015-04-26","2015-07-10","1"
"02-028","02","Site 02","29","M","Hispanic","Placebo","2015-04-25","Y","Renal and urinary disorders","10062225","Urinary tract pain","Pain of the urinary trac","206","333","N","SEVERE","NOT RELATED","RESOLVED WITH SEQUELAE","Y","2015-11-16","2016-03-22","2"
"02-029","02","Site 02","39","M","Hispanic","Treatment A","2015-10-22","Y","Gastrointestinal disorders","10021328","Ileus","Partial or complete blockage of the small and/or large bowel.  Ileu is a functional rather than actual blockage of the bowel.","23","85","N","MODERATE","UNLIKELY RELATED","RESOLVED, RECOVERED","N","2015-11-13","2016-01-14","1"
"02-029","02","Site 02","39","M","Hispanic","Treatment A","2015-10-22","Y","Ear and labyrinth disorders","10065838","Middle ear inflammation","Inflammation (swelling and redness) to the middle ea","106","254","N","MILD","UNLIKELY RELATED","RECOVERED","N","2016-02-04","2016-07-01","2"
"02-029","02","Site 02","39","M","Hispanic","Treatment A","2015-10-22","Y","Endocrine disorders","10058084","Precocious puberty","Unusually early onset of sexual maturation (puberty","283","347","N","SEVERE","UNLIKELY RELATED","RECOVERED","N","2016-07-30","2016-10-02","3"
"02-030","02","Site 02","47","M","Black","Placebo","2015-04-27","N",,,,,,,,,,,,,,
"03-001","03","Site 03","18","F","White","Treatment B","2015-12-14","Y","Gastrointestinal disorders","10015461","Esophagitis","Inflammation (swelling and redness) of the esophagus (gullet or the tube that goes from mouth to stomach through which food passes)","8","285","N","MODERATE","NOT RELATED","RESOLVED, RECOVERED","N","2015-12-21","2016-09-23","1"
"03-001","03","Site 03","18","F","White","Treatment B","2015-12-14","Y","Metabolism and nutrition disorders","10020670","Hypermagnesemia","Increased blood level of magnesium","92","196","N","MILD","UNLIKELY RELATED","RESOLVED, RECOVERED","N","2016-03-14","2016-06-26","2"
"03-001","03","Site 03","18","F","White","Treatment B","2015-12-14","Y","Vascular disorders","10020407","Hot flashes","Hot flashes","133","200","N","MILD","UNLIKELY RELATED","RECOVERED","N","2016-04-24","2016-06-30","3"
"03-001","03","Site 03","18","F","White","Treatment B","2015-12-14","Y","Respiratory, thoracic and mediastina disorders","10037400","Pulmonary hypertension","High blood pressure of the blood vessels in the lungs","244","295","N","MILD","NOT RELATED","RESOLVED WITHOUT SEQUELAE","N","2016-08-13","2016-10-03","4"
"03-001","03","Site 03","18","F","White","Treatment B","2015-12-14","Y","Investigations","10047900","Weight loss","Weight loss","300","311","N","MILD","POSSIBLY RELATED","RESOLVED, RECOVERED","Y","2016-10-08","2016-10-19","5"
"03-002","03","Site 03","43","F","Hispanic","Treatment A","2015-04-25","Y","Musculoskeletal and connective tissu disorders","10003988","Back pain","Back pain","353","354","N","SEVERE","POSSIBLY RELATED","RESOLVED, RECOVERED","Y","2016-04-11","2016-04-12","1"
"03-003","03","Site 03","27","F","White","Treatment A","2015-09-02","Y","Injury, poisoning and procedura complications","10047228","Venous injury","Damage to a vein (a blood vessel that carries blood low in oxyge content from the body back to the heart)","87","143","Y","MILD","PROBABLY RELATED","RESOLVED, RECOVERED","N","2015-11-27","2016-01-22","1"
"03-003","03","Site 03","27","F","White","Treatment A","2015-09-02","Y","Investigations","10005332","Blood antidiuretic hormone abnormal","Abnomal level of antidiuretic hormone (a hormone that regulates t body's retention of water)","117","129","N","MILD","UNLIKELY RELATED","RECOVERED","Y","2015-12-27","2016-01-08","2"
"03-003","03","Site 03","27","F","White","Treatment A","2015-09-02","Y","Gastrointestinal disorders","10038079","Rectal stenosis","Narrowing of the rectum","150","206","N","MILD","POSSIBLY RELATED","RESOLVED WITHOUT SEQUELAE","N","2016-01-29","2016-03-25","3"
"03-004","03","Site 03","42","M","Black","Treatment B","2015-05-27","Y","Infections and infestations","10034835","Pharyngitis","Infection in the throat","148","339","N","MILD","NOT RELATED","RECOVERED","Y","2015-10-21","2016-04-29","1"
"03-005","03","Site 03","19","F","Hispanic","Placebo","2015-12-03","Y","Injury, poisoning and procedura complications","10055298","Intraoperative hemorrhage","Uncontrolled bleeding during surgery","235","237","N","MODERATE","DEFINITELY RELEATED","RECOVERED","N","2016-07-24","2016-07-26","1"
"03-006","03","Site 03","18","M","Hispanic","Treatment B","2015-03-30","Y","Reproductive system and breast disorders","10065811","Uterine fistula","Hole between uterus (womb) and another organ","2","230","N","MODERATE","UNLIKELY RELATED","RESOLVED WITHOUT SEQUELAE","N","2015-03-31","2015-11-14","1"
"03-007","03","Site 03","42","F","White","Treatment B","2015-03-17","Y","Vascular disorders","10054692","Visceral arterial ischemia","Blockage or narrowing of a visceral artery (a blood vessel tha carries blood from the heart) located in an internal organ","73","109","Y","MILD","UNLIKELY RELATED","RESOLVED, RECOVERED","N","2015-05-28","2015-07-03","1"
"03-007","03","Site 03","42","F","White","Treatment B","2015-03-17","Y","Blood and lymphatic system disorders","10013442","Disseminated intravascular coagulation","Abnormal blood clotting and/or bleeding","271","364","N","MILD","UNLIKELY RELATED","RESOLVED, RECOVERED","N","2015-12-12","2016-03-14","2"
"03-008","03","Site 03","49","F","Other/Mixed","Treatment A","2015-08-19","Y","General disorders and administration sit conditions","10028154","Multi-organ failure","Progressive failure of the lungs, liver, kidney, and clottin mechanisms","46","67","N","MODERATE","UNLIKELY RELATED","RESOLVED, RECOVERED","Y","2015-10-03","2015-10-24","1"
"03-008","03","Site 03","49","F","Other/Mixed","Treatment A","2015-08-19","Y","Cardiac disorders","10003673","Atrioventricular block complete","Irregular heartbeat.  A complete blockage of electrical signals fro the upper chambers of the heart (atria) to the lower chambers. (ventricle)","49","89","N","MODERATE","NOT RELATED","RESOLVED WITHOUT SEQUELAE","Y","2015-10-06","2015-11-15","2"
"03-008","03","Site 03","49","F","Other/Mixed","Treatment A","2015-08-19","Y","Endocrine disorders","10021114","Hypothyroidism","Abnormally low level of thyroid gland hormon","76","341","N","MODERATE","NOT RELATED","RESOLVED, RECOVERED","N","2015-11-02","2016-07-24","3"
"03-008","03","Site 03","49","F","Other/Mixed","Treatment A","2015-08-19","Y","Injury, poisoning and procedura complications","10020100","Hip fracture","Broken hip","217","275","N","MODERATE","UNLIKELY RELATED","RESOLVED WITHOUT SEQUELAE","N","2016-03-22","2016-05-19","4"
"03-008","03","Site 03","49","F","Other/Mixed","Treatment A","2015-08-19","Y","Skin and subcutaneous tissue disorders","10016241","Fat atrophy","Shrinking of body fat","256","328","N","MODERATE","PROBABLY RELATED","RESOLVED WITHOUT SEQUELAE","N","2016-04-30","2016-07-11","5"
"03-009","03","Site 03","27","M","Hispanic","Treatment B","2015-06-17","N",,,,,,,,,,,,,,
"03-010","03","Site 03","28","F","White","Placebo","2015-11-15","Y","Renal and urinary disorders","10046539","Urinary frequency","Need to urinate often","80","125","N","MILD","PROBABLY RELATED","RESOLVED, RECOVERED","Y","2016-02-02","2016-03-18","1"
"03-010","03","Site 03","28","F","White","Placebo","2015-11-15","Y","Reproductive system and breast disorders","10034310","Penile pain","Pain in the penis","146","178","N","SEVERE","POSSIBLY RELATED","RESOLVED, RECOVERED","N","2016-04-08","2016-05-10","2"
"03-010","03","Site 03","28","F","White","Placebo","2015-11-15","Y","Blood and lymphatic system disorders","10013442","Disseminated intravascular coagulation","Abnormal blood clotting and/or bleeding","206","352","N","MODERATE","UNLIKELY RELATED","RESOLVED, RECOVERED","Y","2016-06-07","2016-10-31","3"
"03-010","03","Site 03","28","F","White","Placebo","2015-11-15","Y","Infections and infestations","10062233","Uterine infection","Infection of the uterus (womb)","283","310","N","MODERATE","NOT RELATED","RESOLVED, RECOVERED","Y","2016-08-23","2016-09-19","4"
"03-011","03","Site 03","49","M","Other/Mixed","Treatment A","2015-02-05","Y","Musculoskeletal and connective tissu disorders","10003246","Arthritis","Inflammation (swelling and redness) in a joint (arthritis)","22","265","N","MILD","POSSIBLY RELATED","RESOLVED WITH SEQUELAE","Y","2015-02-26","2015-10-27","1"
"03-011","03","Site 03","49","M","Other/Mixed","Treatment A","2015-02-05","Y","Injury, poisoning and procedura complications","10059094","Intestinal stoma obstruction","Blockage of an ostomy site (a surgically created opening in th digestive tract for the discharge of body wastes)","174","200","N","MILD","POSSIBLY RELATED","RECOVERED","Y","2015-07-28","2015-08-23","2"
"03-011","03","Site 03","49","M","Other/Mixed","Treatment A","2015-02-05","Y","Investigations","10047580","Vital capacity abnormal","Abnormal amount of air that is exhaled by following a maxima inhalation","288","333","N","MODERATE","UNLIKELY RELATED","RESOLVED WITHOUT SEQUELAE","N","2015-11-19","2016-01-03","3"
"03-011","03","Site 03","49","M","Other/Mixed","Treatment A","2015-02-05","Y","Reproductive system and breast disorders","10034310","Penile pain","Pain in the penis","350","358","N","SEVERE","UNLIKELY RELATED","RESOLVED WITHOUT SEQUELAE","Y","2016-01-20","2016-01-28","4"
"03-012","03","Site 03","32","M","Black","Placebo","2015-08-19","Y","Investigations","10049182","White blood cell decreased","Decrease in the total number of white blood cells (leukocytes","66","101","N","SEVERE","NOT RELATED","RESOLVED, RECOVERED","Y","2015-10-23","2015-11-27","1"
"03-012","03","Site 03","32","M","Black","Placebo","2015-08-19","Y","Endocrine disorders","10058084","Precocious puberty","Unusually early onset of sexual maturation (puberty","133","214","N","SEVERE","PROBABLY RELATED","RECOVERED","N","2015-12-29","2016-03-19","2"
"03-012","03","Site 03","32","M","Black","Placebo","2015-08-19","Y","General disorders and administration sit conditions","10008531","Chills","Chills","329","347","N","MODERATE","UNLIKELY RELATED","RECOVERED","N","2016-07-12","2016-07-30","3"
"03-013","03","Site 03","33","M","Other/Mixed","Placebo","2015-10-28","Y","Renal and urinary disorders","10064848","Chronic kidney disease","Gradual (and usually permanent) loss of kidney functio","10","220","N","MILD","PROBABLY RELATED","RECOVERED","Y","2015-11-06","2016-06-03","1"
"03-013","03","Site 03","33","M","Other/Mixed","Placebo","2015-10-28","Y","Cardiac disorders","10048015","Wolff-Parkinson-White syndrome","Rapid heart rate caused by extra electrical pathway in the hear","45","302","N","SEVERE","UNLIKELY RELATED","RECOVERED","N","2015-12-11","2016-08-24","2"
"03-013","03","Site 03","33","M","Other/Mixed","Placebo","2015-10-28","Y","Investigations","10011268","CPK increased","Increased blood level of enzyme (creatine phosphokinase) fro muscle","128","194","N","MILD","PROBABLY RELATED","RECOVERED","Y","2016-03-03","2016-05-08","3"
"03-013","03","Site 03","33","M","Other/Mixed","Placebo","2015-10-28","Y","Injury, poisoning and procedural complications","10065705","Pharyngeal anastomotic leak","Leakage from the pharynx (throat) due to breakdown of a anastomosis (surgical connection between two body structures)","200","219","N","MILD","UNLIKELY RELATED","RECOVERED","Y","2016-05-14","2016-06-02","4"
"03-013","03","Site 03","33","M","Other/Mixed","Placebo","2015-10-28","Y","Reproductive system and breast disorders","10064026","Pelvic floor muscle weakness","Weakness in the “pelvic floor”  (the group of muscles that form  sling or hammock across the opening of a woman’s pelvis)","365","365","N","MILD","NOT RELATED","RECOVERED","N","2016-10-26","2016-10-26","5"
"03-014","03","Site 03","53","F","Black","Placebo","2015-02-07","Y","Infections and infestations","10055005","Ovarian infection","Infection of the ovaries","27","306","N","MODERATE","NOT RELATED","RECOVERED","N","2015-03-05","2015-12-09","1"
"03-014","03","Site 03","53","F","Black","Placebo","2015-02-07","Y","Gastrointestinal disorders","10041103","Small intestinal perforation","Hole in the small bowe","54","59","N","MILD","PROBABLY RELATED","RESOLVED WITHOUT SEQUELAE","N","2015-04-01","2015-04-06","2"
"03-014","03","Site 03","53","F","Black","Placebo","2015-02-07","Y","Infections and infestations","10052298","Urethral infection","Infection of the urethra (tube that drains the bladder","95","341","N","MODERATE","NOT RELATED","RESOLVED WITH SEQUELAE","N","2015-05-12","2016-01-13","3"
"03-014","03","Site 03","53","F","Black","Placebo","2015-02-07","Y","Gastrointestinal disorders","10055472","Esophageal perforation","Hole in the esophagus (gullet or the tube that goes from mouth t stomach through which food passes)","174","178","N","MILD","UNLIKELY RELATED","RESOLVED, RECOVERED","Y","2015-07-30","2015-08-03","4"
"03-014","03","Site 03","53","F","Black","Placebo","2015-02-07","Y","Injury, poisoning and procedura complications","10059095","Intestinal stoma leak","Leakage from ostomy site (a surgically created opening in th digestive tract for the discharge of body wastes)","240","243","N","MILD","UNLIKELY RELATED","RESOLVED WITHOUT SEQUELAE","Y","2015-10-04","2015-10-07","5"
"03-015","03","Site 03","33","M","Black","Treatment B","2015-06-27","Y","Injury, poisoning and procedura complications","10065883","Urostomy obstruction","Blockage from a urostoma (a surgically created opening for th discharge of urine)","4","13","Y","MILD","PROBABLY RELATED","RECOVERED","N","2015-06-30","2015-07-09","1"
"03-015","03","Site 03","33","M","Black","Treatment B","2015-06-27","Y","Injury, poisoning and procedural complications","10065961","Esophageal anastomotic leak","Leakage from the esophagus (gullet or the tube that goes fro mouth to stomach  through which food passes) breakdown of an esophageal anastomosis (surgical connection of two separate body structures)","143","322","N","MODERATE","UNLIKELY RELATED","RESOLVED, RECOVERED","Y","2015-11-16","2016-05-13","2"
"03-015","03","Site 03","33","M","Black","Treatment B","2015-06-27","Y","Renal and urinary disorders","10037032","Proteinuria","More protein leaking into the urine than usual, often a sign of kidne disease","326","337","N","SEVERE","NOT RELATED","RESOLVED, RECOVERED","N","2016-05-17","2016-05-28","3"
"03-016","03","Site 03","24","F","Black","Placebo","2015-07-21","Y",,,,,,,,,,,,,,
"03-017","03","Site 03","20","F","White","Treatment A","2015-05-04","Y","Cardiac disorders","10040741","Sinus bradycardia","Slow heartbeat; regular rhythm","131","175","N","MILD","NOT RELATED","RECOVERED","Y","2015-09-11","2015-10-25","1"
"03-017","03","Site 03","20","F","White","Treatment A","2015-05-04","Y","General disorders and administration sit conditions","10042435","Sudden death NOS","Sudden death of unknown cause(s)","314","317","N","MILD","UNLIKELY RELATED","RESOLVED, RECOVERED","N","2016-03-12","2016-03-15","2"
"03-018","03","Site 03","26","M","Hispanic","Treatment B","2015-04-28","Y",,,,,,,,,,,,,,
"03-019","03","Site 03","19","M","Hispanic","Placebo","2015-05-30","Y","Musculoskeletal and connective tissu disorders","10003246","Arthritis","Inflammation (swelling and redness) in a joint (arthritis)","225","305","N","MODERATE","UNLIKELY RELATED","RECOVERED","Y","2016-01-09","2016-03-29","1"
"03-019","03","Site 03","19","M","Hispanic","Placebo","2015-05-30","Y","Cardiac disorders","10028606","Myocarditis","Inflammation (swelling and redness) of the heart muscle","302","315","N","SEVERE","NOT RELATED","RESOLVED WITHOUT SEQUELAE","N","2016-03-26","2016-04-08","2"
"03-020","03","Site 03","32","M","Other/Mixed","Treatment A","2015-07-02","Y",,,,,,,,,,,,,,
"03-021","03","Site 03","51","M","White","Treatment B","2015-11-12","Y","Infections and infestations","10034835","Pharyngitis","Infection in the throat","45","232","Y","MODERATE","UNLIKELY RELATED","RESOLVED WITHOUT SEQUELAE","N","2015-12-26","2016-06-30","1"
"03-021","03","Site 03","51","M","White","Treatment B","2015-11-12","Y","Pregnancy, puerperium and perinata conditions","10054746","Fetal growth retardation","Inhibition of fetal growth resulting in the inability of the fetus t achieve its potential weight","150","310","N","MILD","UNLIKELY RELATED","RESOLVED, RECOVERED","N","2016-04-09","2016-09-16","2"
"03-022","03","Site 03","49","M","Hispanic","Placebo","2015-05-14","Y","Investigations","10029366","Neutrophil count decreased","Decreased number of a type of white blood cel (neutrophil/granulocyte)","144","162","N","MODERATE","NOT RELATED","RECOVERED","N","2015-10-04","2015-10-22","1"
"03-022","03","Site 03","49","M","Hispanic","Placebo","2015-05-14","Y","Psychiatric disorders","10015533","Euphoria","Exaggerated feeling of well being","161","190","N","MILD","POSSIBLY RELATED","RECOVERED","N","2015-10-21","2015-11-19","2"
"03-023","03","Site 03","46","M","Other/Mixed","Treatment A","2015-01-21","Y","Respiratory, thoracic and mediastina disorders","10056356","Mediastinal hemorrhage","Bleeding in the central area of the chest","210","210","N","MILD","NOT RELATED","RECOVERED","Y","2015-08-18","2015-08-18","1"
"03-024","03","Site 03","52","M","Hispanic","Placebo","2015-03-26","Y","Gastrointestinal disorders","10034536","Periodontal disease","Disease of the teeth or gums","249","256","N","MODERATE","UNLIKELY RELATED","RESOLVED, RECOVERED","Y","2015-11-29","2015-12-06","1"
"03-024","03","Site 03","52","M","Hispanic","Placebo","2015-03-26","Y","Musculoskeletal and connective tissu disorders","10065796","Joint range of motion decreased cervica spine","Stiff neck","336","342","N","MILD","UNLIKELY RELATED","RECOVERED","N","2016-02-24","2016-03-01","2"
"03-025","03","Site 03","27","F","White","Treatment B","2015-03-17","N",,,,,,,,,,,,,,
"03-026","03","Site 03","53","F","Black","Treatment B","2015-04-30","Y",,,,,,,,,,,,,,
"03-027","03","Site 03","49","M","Hispanic","Treatment A","2015-05-13","Y","Injury, poisoning and procedural complications","10065892","Small intestinal anastomotic leak","Leakage from the small bowel due to breakdown of a anastomosis (surgical connection between two body structures)","125","245","Y","MILD","PROBABLY RELATED","RECOVERED","N","2015-09-14","2016-01-12","1"
"03-027","03","Site 03","49","M","Hispanic","Treatment A","2015-05-13","Y","Investigations","10005452","Blood corticotrophin decreased","Decreased blood level of corticotrophin (a hormone produced b the pituitary gland)","135","151","N","MILD","DEFINITELY RELEATED","RESOLVED WITH SEQUELAE","N","2015-09-24","2015-10-10","2"
"03-027","03","Site 03","49","M","Hispanic","Treatment A","2015-05-13","Y","Respiratory, thoracic and mediastina disorders","10035598","Pleural effusion","Build up of a large amount of fluid between the layers of tissue tha line the lungs and chest cavity","316","344","N","MILD","PROBABLY RELATED","RESOLVED WITHOUT SEQUELAE","Y","2016-03-23","2016-04-20","3"
"03-028","03","Site 03","37","F","Other/Mixed","Treatment B","2015-05-11","Y","Respiratory, thoracic and mediastina disorders","10065706","Pharyngeal necrosis","Death of tissue in the throat","247","250","N","MILD","POSSIBLY RELATED","RESOLVED WITHOUT SEQUELAE","Y","2016-01-12","2016-01-15","1"
"03-028","03","Site 03","37","F","Other/Mixed","Treatment B","2015-05-11","Y","Investigations","10047580","Vital capacity abnormal","Abnormal amount of air that is exhaled by following a maxima inhalation","346","348","N","SEVERE","PROBABLY RELATED","RESOLVED WITHOUT SEQUELAE","Y","2016-04-20","2016-04-22","2"
"03-029","03","Site 03","37","F","Other/Mixed","Placebo","2015-03-09","Y","Injury, poisoning and procedura complications","10065842","Intraoperative head and neck injury","Damage to the head and neck during surgery","58","131","N","MILD","UNLIKELY RELATED","RECOVERED","Y","2015-05-05","2015-07-17","1"
"03-029","03","Site 03","37","F","Other/Mixed","Placebo","2015-03-09","Y","Reproductive system and breast disorders","10022992","Irregular menstruation","Irregular menstrual periods","75","260","N","MILD","PROBABLY RELATED","RESOLVED, RECOVERED","Y","2015-05-22","2015-11-23","2"
"03-029","03","Site 03","37","F","Other/Mixed","Placebo","2015-03-09","Y","Investigations","10014383","Electrocardiogram QT corrected interva prolonged","Abnormal electrical conduction within the heart","181","364","N","MILD","UNLIKELY RELATED","RESOLVED, RECOVERED","Y","2015-09-05","2016-03-06","3"
"03-030","03","Site 03","25","M","Hispanic","Treatment B","2015-10-24","N",,,,,,,,,,,,,,
"04-001","04","Site 04","26","F","Hispanic","Treatment B","2015-10-12","Y","Blood and lymphatic system disorders","10016288","Febrile neutropenia","Fever associated with dangerously low levels of a type of whit blood cell (neutrophils)","35","172","N","MODERATE","PROBABLY RELATED","RESOLVED WITHOUT SEQUELAE","Y","2015-11-15","2016-03-31","1"
"04-001","04","Site 04","26","F","Hispanic","Treatment B","2015-10-12","Y","Gastrointestinal disorders","10034536","Periodontal disease","Disease of the teeth or gums","197","197","N","MILD","NOT RELATED","RESOLVED, RECOVERED","Y","2016-04-25","2016-04-25","2"
"04-001","04","Site 04","26","F","Hispanic","Treatment B","2015-10-12","Y","Eye disorders","10034960","Photophobia","Fear of light","314","344","N","MILD","POSSIBLY RELATED","RESOLVED, RECOVERED","N","2016-08-20","2016-09-19","3"
"04-002","04","Site 04","21","M","Hispanic","Placebo","2015-02-11","N",,,,,,,,,,,,,,
"04-003","04","Site 04","54","F","White","Treatment A","2015-06-20","Y","Gastrointestinal disorders","10039411","Salivary gland fistula","Hole between saliva (spit)-producing gland and another orga","178","236","N","MILD","PROBABLY RELATED","RESOLVED, RECOVERED","Y","2015-12-14","2016-02-10","1"
"04-003","04","Site 04","54","F","White","Treatment A","2015-06-20","Y","Nervous system disorders","10013951","Dysphasia","Speech problems","185","203","N","MILD","UNLIKELY RELATED","RESOLVED WITH SEQUELAE","N","2015-12-21","2016-01-08","2"
"04-003","04","Site 04","54","F","White","Treatment A","2015-06-20","Y","Ear and labyrinth disorders","10065837","External ear inflammation","Inflammation (swelling and redness) of the skin of outer ear an canal","317","345","N","MODERATE","NOT RELATED","RESOLVED, RECOVERED","N","2016-05-01","2016-05-29","3"
"04-004","04","Site 04","25","M","Other/Mixed","Treatment A","2015-11-17","Y","Gastrointestinal disorders","10015384","Esophageal hemorrhage","Bleeding in the esophagus (gullet or the tube that goes from th mouth to the stomach)","17","230","N","SEVERE","NOT RELATED","RECOVERED","Y","2015-12-03","2016-07-03","1"
"04-004","04","Site 04","25","M","Other/Mixed","Treatment A","2015-11-17","Y","Injury, poisoning and procedura complications","10065828","Intraoperative urinary injury","Damage to the urinary tract during surgery","47","318","N","SEVERE","NOT RELATED","RECOVERED","N","2016-01-02","2016-09-29","2"
"04-004","04","Site 04","25","M","Other/Mixed","Treatment A","2015-11-17","Y","Nervous system disorders","10022763","Intracranial hemorrhage","Bleeding in the brain","48","56","N","MILD","POSSIBLY RELATED","RESOLVED WITH SEQUELAE","N","2016-01-03","2016-01-11","3"
"04-004","04","Site 04","25","M","Other/Mixed","Treatment A","2015-11-17","Y","Gastrointestinal disorders","10055300","Jejunal hemorrhage","Bleeding in an area of the small bowel (jejunum","106","328","Y","MODERATE","DEFINITELY RELEATED","RESOLVED WITHOUT SEQUELAE","N","2016-03-01","2016-10-09","4"
"04-004","04","Site 04","25","M","Other/Mixed","Treatment A","2015-11-17","Y","Musculoskeletal and connective tissu disorders","10065775","Abdominal soft tissue necrosis","Death of tissue of the belly wall","153","228","N","MILD","POSSIBLY RELATED","RESOLVED, RECOVERED","N","2016-04-17","2016-07-01","5"
"04-005","04","Site 04","39","M","Black","Placebo","2015-08-03","Y","Investigations","10025258","Lymphocyte count increased","Increased number of a type of white blood cell (lymphocyte","167","168","N","MILD","DEFINITELY RELEATED","RESOLVED, RECOVERED","N","2016-01-16","2016-01-17","1"
"04-005","04","Site 04","39","M","Black","Placebo","2015-08-03","Y","Blood and lymphatic system disorders","10024378","Leukocytosis","Increased number of white blood cells (leukocytes) in the peripher blood","173","235","N","MILD","POSSIBLY RELATED","RECOVERED","N","2016-01-22","2016-03-24","2"
"04-005","04","Site 04","39","M","Black","Placebo","2015-08-03","Y","Blood and lymphatic system disorders","10019491","Hemolysis","Destruction of red blood cells","182","187","N","MILD","UNLIKELY RELATED","RECOVERED","N","2016-01-31","2016-02-05","3"
"04-006","04","Site 04","42","M","White","Treatment B","2015-08-18","Y","Psychiatric disorders","10026749","Mania","Extremely elevated mood, energy, unusual thought patterns, an sometimes psychosis (mental state often described as involving a ""loss of contact with reality"")","7","192","N","MILD","UNLIKELY RELATED","RESOLVED, RECOVERED","N","2015-08-24","2016-02-25","1"
"04-006","04","Site 04","42","M","White","Treatment B","2015-08-18","Y","Metabolism and nutrition disorders","10020943","Hypoalbuminemia","Decreased levels of a blood protein called albumin","141","205","N","MILD","UNLIKELY RELATED","RECOVERED","N","2016-01-05","2016-03-09","2"
"04-006","04","Site 04","42","M","White","Treatment B","2015-08-18","Y","Endocrine disorders","10047488","Virilization","Development of male physical characteristics in females","201","300","N","MILD","DEFINITELY RELEATED","RECOVERED","N","2016-03-05","2016-06-12","3"
"04-006","04","Site 04","42","M","White","Treatment B","2015-08-18","Y","Respiratory, thoracic and mediastina disorders","10023891","Laryngospasm","Uncontrolled contractions of the muscles of the vocal cords","211","231","N","MILD","UNLIKELY RELATED","RESOLVED, RECOVERED","Y","2016-03-15","2016-04-04","4"
"04-006","04","Site 04","42","M","White","Treatment B","2015-08-18","Y","Nervous system disorders","10009845","Cognitive disturbance","Major change in thinking patterns","242","284","Y","SEVERE","POSSIBLY RELATED","RECOVERED","Y","2016-04-15","2016-05-27","5"
"04-007","04","Site 04","23","F","Hispanic","Treatment A","2015-11-14","Y","Cardiac disorders","10040741","Sinus bradycardia","Slow heartbeat; regular rhythm","2","26","N","MILD","NOT RELATED","RESOLVED, RECOVERED","Y","2015-11-15","2015-12-09","1"
"04-007","04","Site 04","23","F","Hispanic","Treatment A","2015-11-14","Y","Injury, poisoning and procedura complications","10048031","Wound dehiscence","Premature opening of a wound along surgical stitches after surgery","145","205","N","MILD","NOT RELATED","RECOVERED","Y","2016-04-06","2016-06-05","2"
"04-007","04","Site 04","23","F","Hispanic","Treatment A","2015-11-14","Y","Hepatobiliary disorders","10036200","Portal hypertension","Increased blood pressure in the system of veins called the porta venous system (blood vessels coming from the stomach, intestine, spleen, and pancreas, merging into the portal vein that flows to the liver)","341","354","N","MODERATE","UNLIKELY RELATED","RESOLVED, RECOVERED","N","2016-10-19","2016-11-01","3"
"04-008","04","Site 04","43","M","White","Treatment B","2015-07-08","Y","Cardiac disorders","10048015","Wolff-Parkinson-White syndrome","Rapid heart rate caused by extra electrical pathway in the hear","221","364","N","MILD","NOT RELATED","RESOLVED WITHOUT SEQUELAE","N","2016-02-13","2016-07-05","1"
"04-008","04","Site 04","43","M","White","Treatment B","2015-07-08","Y","Cardiac disorders","10003673","Atrioventricular block complete","Irregular heartbeat.  A complete blockage of electrical signals fro the upper chambers of the heart (atria) to the lower chambers. (ventricle)","230","235","N","MODERATE","NOT RELATED","RECOVERED","N","2016-02-22","2016-02-27","2"
"04-008","04","Site 04","43","M","White","Treatment B","2015-07-08","Y","Respiratory, thoracic and mediastina disorders","10015090","Epistaxis","Nose bleed","312","349","N","MILD","PROBABLY RELATED","RECOVERED","Y","2016-05-14","2016-06-20","3"
"04-009","04","Site 04","31","F","Black","Placebo","2015-04-10","Y","Endocrine disorders","10047488","Virilization","Development of male physical characteristics in females","9","315","N","MILD","NOT RELATED","RECOVERED","Y","2015-04-18","2016-02-18","1"
"04-009","04","Site 04","31","F","Black","Placebo","2015-04-10","Y","Infections and infestations","10065765","Cranial nerve infection","Infection of the nerves that come from the brain and exit throug openings in the skull","17","181","N","MODERATE","NOT RELATED","RECOVERED","N","2015-04-26","2015-10-07","2"
"04-009","04","Site 04","31","F","Black","Placebo","2015-04-10","Y","Reproductive system and breast disorders","10061461","Erectile dysfunction","Impotence or the inability to have or maintain an erection durin sexual intercourse","27","158","N","MILD","POSSIBLY RELATED","RESOLVED, RECOVERED","Y","2015-05-06","2015-09-14","3"
"04-009","04","Site 04","31","F","Black","Placebo","2015-04-10","Y","Investigations","10040139","Serum amylase increased","Increased blood level of a digestive enzyme (amylase","103","215","N","MILD","POSSIBLY RELATED","RECOVERED","N","2015-07-21","2015-11-10","4"
"04-009","04","Site 04","31","F","Black","Placebo","2015-04-10","Y","Respiratory, thoracic and mediastina disorders","10041367","Sore throat","Sore throat","346","353","N","MILD","DEFINITELY RELEATED","RECOVERED","N","2016-03-20","2016-03-27","5"
"04-010","04","Site 04","39","F","Hispanic","Placebo","2015-01-22","Y",,,,,,,,,,,,,,
"04-011","04","Site 04","44","M","White","Treatment B","2015-11-26","Y","Gastrointestinal disorders","10009998","Colonic hemorrhage","Bleeding in the large bowe","26","221","N","MODERATE","PROBABLY RELATED","RESOLVED, RECOVERED","N","2015-12-21","2016-07-03","1"
"04-011","04","Site 04","44","M","White","Treatment B","2015-11-26","Y","Infections and infestations","10058804","Esophageal infection","Infection of the esophagus (gullet or the tube that goes from th mouth to the stomach)","27","231","N","MILD","PROBABLY RELATED","RESOLVED WITHOUT SEQUELAE","Y","2015-12-22","2016-07-13","2"
"04-011","04","Site 04","44","M","White","Treatment B","2015-11-26","Y","Gastrointestinal disorders","10023174","Jejunal perforation","Hole in an area of the small bowel (jejunum","37","198","N","MODERATE","NOT RELATED","RECOVERED","N","2016-01-01","2016-06-10","3"
"04-011","04","Site 04","44","M","White","Treatment B","2015-11-26","Y","Metabolism and nutrition disorders","10020680","Hypernatremia","Increased blood level of sodium","285","351","N","MODERATE","POSSIBLY RELATED","RESOLVED WITH SEQUELAE","N","2016-09-05","2016-11-10","4"
"04-012","04","Site 04","49","M","Hispanic","Treatment A","2015-08-16","Y",,,,,,,,,,,,,,
"04-013","04","Site 04","18","M","Hispanic","Treatment B","2015-11-06","Y",,,,,,,,,,,,,,
"04-014","04","Site 04","19","M","Hispanic","Treatment A","2015-04-22","Y","Respiratory, thoracic and mediastina disorders","10020201","Hoarseness","Hoarseness","23","239","N","MILD","DEFINITELY RELEATED","RESOLVED, RECOVERED","Y","2015-05-14","2015-12-16","1"
"04-014","04","Site 04","19","M","Hispanic","Treatment A","2015-04-22","Y","Cardiac disorders","10058597","Right ventricular dysfunction","Failure of the right lower chamber of the heart (ventricle) caused b long-term high blood pressure in the lungs","232","297","N","MILD","POSSIBLY RELATED","RECOVERED","N","2015-12-09","2016-02-12","2"
"04-014","04","Site 04","19","M","Hispanic","Treatment A","2015-04-22","Y","Gastrointestinal disorders","10055291","Intra-abdominal hemorrhage","Bleeding in the belly","255","298","N","MILD","DEFINITELY RELEATED","RESOLVED, RECOVERED","N","2016-01-01","2016-02-13","3"
"04-014","04","Site 04","19","M","Hispanic","Treatment A","2015-04-22","Y","Injury, poisoning and procedural complications","10065888","Vas deferens anastomotic leak","Leakage from the vas deferens (the tube connecting the testes wit the urethra [the tube which connects the bladder to the outside of the body]) due to breakdown of a anastomosis (surgical connection between two body structures)","286","291","N","MILD","DEFINITELY RELEATED","RESOLVED, RECOVERED","Y","2016-02-01","2016-02-06","4"
"04-014","04","Site 04","19","M","Hispanic","Treatment A","2015-04-22","Y","Investigations","10005332","Blood antidiuretic hormone abnormal","Abnomal level of antidiuretic hormone (a hormone that regulates t body's retention of water)","320","359","N","SEVERE","DEFINITELY RELEATED","RECOVERED","N","2016-03-06","2016-04-14","5"
"04-015","04","Site 04","52","M","Other/Mixed","Treatment B","2015-05-25","Y",,,,,,,,,,,,,,
"04-016","04","Site 04","27","F","Black","Treatment B","2015-12-13","Y",,,,,,,,,,,,,,
"04-017","04","Site 04","28","F","Hispanic","Treatment A","2015-05-28","Y","Infections and infestations","10061695","Biliary tract infection","Bile duct infection","85","201","N","MILD","POSSIBLY RELATED","RESOLVED WITHOUT SEQUELAE","Y","2015-08-20","2015-12-14","1"
"04-017","04","Site 04","28","F","Hispanic","Treatment A","2015-05-28","Y","Respiratory, thoracic and mediastina disorders","10035759","Pneumothorax","Accumulation of air in the pleural cavity (the space that surround the lungs) causing the lung to collapse","139","308","N","MODERATE","PROBABLY RELATED","RESOLVED WITH SEQUELAE","Y","2015-10-13","2016-03-30","2"
"04-017","04","Site 04","28","F","Hispanic","Treatment A","2015-05-28","Y","Psychiatric disorders","10037234","Psychosis","Mental illness often described as involving a ""loss of contact wit reality"" which can be associated with bipolar disorder (manic- depressive) or brain tumor","252","350","N","MODERATE","POSSIBLY RELATED","RESOLVED WITHOUT SEQUELAE","N","2016-02-03","2016-05-11","3"
"04-017","04","Site 04","28","F","Hispanic","Treatment A","2015-05-28","Y","Gastrointestinal disorders","10060640","Hemorrhoidal hemorrhage","bleeding in hemorrhoids (swollen or irritated blood vessels in th anus and rectum, also known as piles)","294","337","N","MILD","PROBABLY RELATED","RESOLVED, RECOVERED","N","2016-03-16","2016-04-28","4"
"04-018","04","Site 04","42","M","Other/Mixed","Placebo","2015-01-27","N",,,,,,,,,,,,,,
"04-019","04","Site 04","26","F","White","Treatment A","2015-06-13","N",,,,,,,,,,,,,,
"04-020","04","Site 04","55","F","Other/Mixed","Placebo","2015-01-21","Y","Respiratory, thoracic and mediastina disorders","10051228","Chylothorax","Type of pleural effusion (excess fluid in the pleural cavity [(the bod cavity that surrounds the lungs])","30","65","N","MILD","UNLIKELY RELATED","RESOLVED, RECOVERED","N","2015-02-19","2015-03-26","1"
"04-020","04","Site 04","55","F","Other/Mixed","Placebo","2015-01-21","Y","Respiratory, thoracic and mediastina disorders","10059639","Laryngeal obstruction","Blockage of or in the voice box","44","292","N","MILD","POSSIBLY RELATED","RESOLVED WITHOUT SEQUELAE","N","2015-03-05","2015-11-08","2"
"04-020","04","Site 04","55","F","Other/Mixed","Placebo","2015-01-21","Y","Psychiatric disorders","10042458","Suicidal ideation","Thoughts of taking ones own life","52","313","N","MODERATE","POSSIBLY RELATED","RESOLVED, RECOVERED","N","2015-03-13","2015-11-29","3"
"04-020","04","Site 04","55","F","Other/Mixed","Placebo","2015-01-21","Y","Injury, poisoning and procedural complications","10065888","Vas deferens anastomotic leak","Leakage from the vas deferens (the tube connecting the testes wit the urethra [the tube which connects the bladder to the outside of the body]) due to breakdown of a anastomosis (surgical connection between two body structures)","165","338","N","MILD","UNLIKELY RELATED","RESOLVED WITH SEQUELAE","N","2015-07-04","2015-12-24","4"
"04-020","04","Site 04","55","F","Other/Mixed","Placebo","2015-01-21","Y","Gastrointestinal disorders","10041101","Small intestinal obstruction","Blockage of the small bowe","193","272","N","MILD","NOT RELATED","RESOLVED WITHOUT SEQUELAE","Y","2015-08-01","2015-10-19","5"
"04-021","04","Site 04","24","F","White","Treatment B","2015-09-14","Y","Infections and infestations","10040047","Sepsis","Severe illness in which the bloodstream is overwhelmed by bacteria","44","61","N","MILD","POSSIBLY RELATED","RESOLVED, RECOVERED","N","2015-10-27","2015-11-13","1"
"04-021","04","Site 04","24","F","White","Treatment B","2015-09-14","Y","Gastrointestinal disorders","10033626","Pancreatic hemorrhage","Bleeding in or from the pancreas","53","138","N","MILD","UNLIKELY RELATED","RESOLVED, RECOVERED","N","2015-11-05","2016-01-29","2"
"04-021","04","Site 04","24","F","White","Treatment B","2015-09-14","Y","Reproductive system and breast disorders","10046912","Vaginal hemorrhage","Bleeding in the vagina","79","311","N","SEVERE","NOT RELATED","RESOLVED WITHOUT SEQUELAE","N","2015-12-01","2016-07-20","3"
"04-021","04","Site 04","24","F","White","Treatment B","2015-09-14","Y","Gastrointestinal disorders","10016296","Fecal incontinence","Inability to control bowel movements thus allowing the escape o feces from the rectum","90","264","N","MODERATE","UNLIKELY RELATED","RESOLVED WITHOUT SEQUELAE","Y","2015-12-12","2016-06-03","4"
"04-022","04","Site 04","21","M","White","Placebo","2015-06-20","Y","Respiratory, thoracic and mediastina disorders","10037375","Pulmonary edema","Abnormal build up of fluid in the lungs","35","173","N","MILD","PROBABLY RELATED","RESOLVED, RECOVERED","Y","2015-07-24","2015-12-09","1"
"04-022","04","Site 04","21","M","White","Placebo","2015-06-20","Y","Skin and subcutaneous tissue disorders","10042033","Stevens-Johnson syndrome","Potentially life-threatening condition affecting less than 10% of th skin in which cell death causes the epidermis (outer layer) to separate from the dermis (middle layer)","47","348","N","MODERATE","PROBABLY RELATED","RECOVERED","N","2015-08-05","2016-06-01","2"
"04-022","04","Site 04","21","M","White","Placebo","2015-06-20","Y","Infections and infestations","10055005","Ovarian infection","Infection of the ovaries","152","189","Y","MILD","NOT RELATED","RESOLVED WITH SEQUELAE","Y","2015-11-18","2015-12-25","3"
"04-022","04","Site 04","21","M","White","Placebo","2015-06-20","Y","Musculoskeletal and connective tissu disorders","10065775","Abdominal soft tissue necrosis","Death of tissue of the belly wall","192","337","Y","MILD","DEFINITELY RELEATED","RECOVERED","N","2015-12-28","2016-05-21","4"
"04-022","04","Site 04","21","M","White","Placebo","2015-06-20","Y","Gastrointestinal disorders","10018043","Gastroparesis","Partial paralysis or loss of muscle function (paresis) of the stomac (""gastro-""), resulting in food remaining in the stomach for a longer period of time than normal","253","296","N","MODERATE","POSSIBLY RELATED","RECOVERED","N","2016-02-27","2016-04-10","5"
"04-023","04","Site 04","54","F","White","Placebo","2015-12-27","Y","Injury, poisoning and procedura complications","10065790","Fallopian tube perforation","Hole in the wall of the fallopian tube (tube between ovary to uteru [womb])","331","343","N","SEVERE","POSSIBLY RELATED","RECOVERED","N","2016-11-21","2016-12-03","1"
"04-024","04","Site 04","21","M","Hispanic","Treatment A","2015-10-04","Y",,,,,,,,,,,,,,
"04-025","04","Site 04","26","M","Other/Mixed","Placebo","2015-05-05","Y","Infections and infestations","10044302","Tracheitis","Windpipe infection","112","363","N","MILD","DEFINITELY RELEATED","RESOLVED WITH SEQUELAE","N","2015-08-24","2016-05-01","1"
"04-025","04","Site 04","26","M","Other/Mixed","Placebo","2015-05-05","Y","Respiratory, thoracic and mediastina disorders","10065746","Bronchopulmonary hemorrhage","Bleeding from the lungs","251","346","N","MILD","DEFINITELY RELEATED","RECOVERED","N","2016-01-10","2016-04-14","2"
"04-025","04","Site 04","26","M","Other/Mixed","Placebo","2015-05-05","Y","Vascular disorders","10065773","Lymph leakage","Leakage of the clear fluid (lymph) that travels through the lymphati vessels and carries cells that help fight infections and other diseases","321","321","N","MILD","PROBABLY RELATED","RESOLVED WITHOUT SEQUELAE","N","2016-03-20","2016-03-20","3"
"04-026","04","Site 04","26","M","Black","Treatment A","2015-08-08","Y",,,,,,,,,,,,,,
"04-027","04","Site 04","27","M","Other/Mixed","Placebo","2015-07-03","Y","Injury, poisoning and procedura complications","10065847","Intraoperative splenic injury","Damage to the spleen during surgery","72","203","N","SEVERE","POSSIBLY RELATED","RESOLVED WITHOUT SEQUELAE","N","2015-09-12","2016-01-21","1"
"04-027","04","Site 04","27","M","Other/Mixed","Placebo","2015-07-03","Y","Infections and infestations","10061304","Nail infection","Infection of the finger or toenails","278","307","N","MODERATE","DEFINITELY RELEATED","RESOLVED, RECOVERED","N","2016-04-05","2016-05-04","2"
"04-027","04","Site 04","27","M","Other/Mixed","Placebo","2015-07-03","Y","Investigations","10001551","Alanine aminotransferase increased","Increased blood level of a liver enzyme (ALT/SGPT","340","363","N","MODERATE","POSSIBLY RELATED","RESOLVED WITHOUT SEQUELAE","Y","2016-06-06","2016-06-29","3"
"04-028","04","Site 04","28","M","White","Treatment A","2015-01-14","Y",,,,,,,,,,,,,,
"04-029","04","Site 04","51","M","Black","Placebo","2015-01-24","Y","Infections and infestations","10061017","Bone infection","Bone infection","49","130","N","MILD","POSSIBLY RELATED","RESOLVED, RECOVERED","N","2015-03-13","2015-06-02","1"
"04-029","04","Site 04","51","M","Black","Placebo","2015-01-24","Y","Gastrointestinal disorders","10030980","Oral hemorrhage","Bleeding in or from the mouth","132","257","N","MILD","POSSIBLY RELATED","RESOLVED, RECOVERED","N","2015-06-04","2015-10-07","2"
"04-029","04","Site 04","51","M","Black","Placebo","2015-01-24","Y","Infections and infestations","10058838","Enterocolitis infectious","Infection of both the small and large bowe","182","201","N","MODERATE","PROBABLY RELATED","RECOVERED","N","2015-07-24","2015-08-12","3"
"04-029","04","Site 04","51","M","Black","Placebo","2015-01-24","Y","Nervous system disorders","10036653","Presyncope","Episode of near-fainting which may include lightheadednes dizziness, severe weakness, blurred vision, which may come before a fainting episode","197","251","N","MODERATE","POSSIBLY RELATED","RECOVERED","Y","2015-08-08","2015-10-01","4"
"04-029","04","Site 04","51","M","Black","Placebo","2015-01-24","Y","Infections and infestations","10065766","Peripheral nerve infection","Infection of the peripheral nerves (nerves in the face, arms, legs torso, and some cranial nerves of the head)","310","360","N","MODERATE","NOT RELATED","RESOLVED WITHOUT SEQUELAE","Y","2015-11-29","2016-01-18","5"
"04-030","04","Site 04","42","F","Other/Mixed","Treatment A","2015-06-16","Y","Renal and urinary disorders","10069339","Acute kidney injury","Sudden decrease of kidney function","4","127","Y","MILD","NOT RELATED","RESOLVED WITHOUT SEQUELAE","N","2015-06-19","2015-10-20","1"
"04-030","04","Site 04","42","F","Other/Mixed","Treatment A","2015-06-16","Y","Gastrointestinal disorders","10065732","Jejunal obstruction","Blockage in an area of the small bowel (jejunum","38","49","N","MODERATE","NOT RELATED","RECOVERED","N","2015-07-23","2015-08-03","2"
"04-030","04","Site 04","42","F","Other/Mixed","Treatment A","2015-06-16","Y","Gastrointestinal disorders","10015461","Esophagitis","Inflammation (swelling and redness) of the esophagus (gullet or the tube that goes from mouth to stomach through which food passes)","69","148","N","MILD","UNLIKELY RELATED","RESOLVED, RECOVERED","Y","2015-08-23","2015-11-10","3"
"04-030","04","Site 04","42","F","Other/Mixed","Treatment A","2015-06-16","Y","Respiratory, thoracic and mediastina disorders","10006482","Bronchospasm","Sudden constriction of the small airways of the lung that can caus wheezing and shortness of breath","142","176","N","MILD","NOT RELATED","RESOLVED WITH SEQUELAE","N","2015-11-04","2015-12-08","4"
"05-001","05","Site 05","43","F","White","Treatment B","2015-02-06","Y","General disorders and administration sit conditions","10021113","Hypothermia","Low body temperature","3","114","N","MILD","DEFINITELY RELEATED","RESOLVED, RECOVERED","N","2015-02-08","2015-05-30","1"
"05-001","05","Site 05","43","F","White","Treatment B","2015-02-06","Y","Gastrointestinal disorders","10061970","Gastric stenosis","Narrowing of the stomach","124","258","N","MILD","NOT RELATED","RECOVERED","Y","2015-06-09","2015-10-21","2"
"05-001","05","Site 05","43","F","White","Treatment B","2015-02-06","Y","Investigations","10005452","Blood corticotrophin decreased","Decreased blood level of corticotrophin (a hormone produced b the pituitary gland)","127","146","N","MILD","POSSIBLY RELATED","RECOVERED","Y","2015-06-12","2015-07-01","3"
"05-001","05","Site 05","43","F","White","Treatment B","2015-02-06","Y","Nervous system disorders","10023030","Ischemia cerebrovascular","Stroke caused by decreased blood flow to the brain","136","310","N","MILD","NOT RELATED","RESOLVED WITHOUT SEQUELAE","N","2015-06-21","2015-12-12","4"
"05-002","05","Site 05","18","M","White","Treatment B","2015-10-08","Y","Infections and infestations","10014621","Encephalomyelitis infection","Brain and spinal cord infection","84","168","N","SEVERE","PROBABLY RELATED","RECOVERED","Y","2015-12-30","2016-03-23","1"
"05-002","05","Site 05","18","M","White","Treatment B","2015-10-08","Y","Cardiac disorders","10040639","Sick sinus syndrome","Collection of heart rhythm signs/symptoms that include: Sinu bradycardia (a slow heartbeat, Tachycardias (a fast heartbeat), Bradycardia-tachycardia (an alternating slow and fast heart rhythms)","202","332","N","MILD","POSSIBLY RELATED","RECOVERED","N","2016-04-26","2016-09-03","2"
"05-002","05","Site 05","18","M","White","Treatment B","2015-10-08","Y","Metabolism and nutrition disorders","10012174","Dehydration","Dehydration (when your body does not have as much water an fluid as it should)","251","283","N","MILD","NOT RELATED","RESOLVED, RECOVERED","N","2016-06-14","2016-07-16","3"
"05-003","05","Site 05","24","F","Other/Mixed","Treatment B","2015-04-23","Y",,,,,,,,,,,,,,
"05-004","05","Site 05","45","F","Black","Treatment A","2015-12-06","Y","Blood and lymphatic system disorders","10041633","Spleen disorder","Abnormality of the spleen","129","140","N","MILD","NOT RELATED","RECOVERED","Y","2016-04-12","2016-04-23","1"
"05-004","05","Site 05","45","F","Black","Treatment A","2015-12-06","Y","General disorders and administration sit conditions","10016059","Facial pain","Face pain","218","219","N","SEVERE","DEFINITELY RELEATED","RESOLVED WITHOUT SEQUELAE","N","2016-07-10","2016-07-11","2"
"05-005","05","Site 05","47","M","White","Placebo","2015-10-30","Y","Musculoskeletal and connective tissu disorders","10065780","Muscle weakness left-sided","Muscle weakness of the left side of the body","158","307","N","MILD","PROBABLY RELATED","RECOVERED","Y","2016-04-04","2016-08-31","1"
"05-005","05","Site 05","47","M","White","Placebo","2015-10-30","Y","Gastrointestinal disorders","10065727","Esophageal necrosis","Death of tissue in the esophagus (gullet or the tube that goes fro mouth to stomach through which food passes)","240","352","N","MODERATE","NOT RELATED","RESOLVED, RECOVERED","Y","2016-06-25","2016-10-15","2"
"05-005","05","Site 05","47","M","White","Placebo","2015-10-30","Y","Injury, poisoning and procedura complications","10003162","Arterial injury","Damage to an artery (a blood vessel that carries blood from th heart to the rest of the body)","313","328","N","MILD","NOT RELATED","RECOVERED","Y","2016-09-06","2016-09-21","3"
"05-006","05","Site 05","31","F","Hispanic","Treatment B","2015-04-25","Y","Skin and subcutaneous tissue disorders","10043189","Telangiectasia","""Spider veins"" (enlarged blood vessels near the skin surface","13","80","N","MODERATE","DEFINITELY RELEATED","RECOVERED","Y","2015-05-07","2015-07-13","1"
"05-006","05","Site 05","31","F","Hispanic","Treatment B","2015-04-25","Y","Respiratory, thoracic and mediastina disorders","10053481","Bronchopleural fistula","Abnormal hole between the lower breathing tube and the bod cavity that surrounds the lungs","48","227","N","MODERATE","POSSIBLY RELATED","RECOVERED","Y","2015-06-11","2015-12-07","2"
"05-006","05","Site 05","31","F","Hispanic","Treatment B","2015-04-25","Y","Injury, poisoning and procedura complications","10065826","Intraoperative arterial injury","Damage to a blood vessel that carries blood from the heart durin surgery","182","254","N","MILD","UNLIKELY RELATED","RESOLVED, RECOVERED","Y","2015-10-23","2016-01-03","3"
"05-006","05","Site 05","31","F","Hispanic","Treatment B","2015-04-25","Y","Respiratory, thoracic and mediastina disorders","10036402","Postnasal drip","Excess fluid dripping in the back of the throat and/or the nose","326","341","N","MILD","UNLIKELY RELATED","RESOLVED WITHOUT SEQUELAE","Y","2016-03-15","2016-03-30","4"
"05-007","05","Site 05","21","M","Hispanic","Placebo","2015-10-15","N",,,,,,,,,,,,,,
"05-008","05","Site 05","21","F","Hispanic","Treatment B","2015-11-12","Y","Injury, poisoning and procedura complications","10041569","Spinal fracture","Broken bone in the spinal column","4","32","N","MODERATE","DEFINITELY RELEATED","RECOVERED","N","2015-11-15","2015-12-13","1"
"05-008","05","Site 05","21","F","Hispanic","Treatment B","2015-11-12","Y","General disorders and administration sit conditions","10025482","Malaise","General feeling of discomfort or being unwell or out of sorts","143","237","N","MILD","NOT RELATED","RESOLVED, RECOVERED","N","2016-04-02","2016-07-05","2"
"05-008","05","Site 05","21","F","Hispanic","Treatment B","2015-11-12","Y","Psychiatric disorders","10034719","Personality change","Noticible changes in a persons personality, behavior, and thinking","286","340","N","SEVERE","UNLIKELY RELATED","RESOLVED, RECOVERED","Y","2016-08-23","2016-10-16","3"
"05-008","05","Site 05","21","F","Hispanic","Treatment B","2015-11-12","Y","Injury, poisoning and procedura complications","10065843","Intraoperative cardiac injury","Damage to the heart during surgery","364","365","N","MILD","NOT RELATED","RESOLVED, RECOVERED","N","2016-11-09","2016-11-10","4"
"05-009","05","Site 05","40","F","Hispanic","Treatment B","2015-11-26","Y","Respiratory, thoracic and mediastina disorders","10034844","Pharyngolaryngeal pain","Throat pain","160","294","N","MODERATE","NOT RELATED","RESOLVED, RECOVERED","N","2016-05-03","2016-09-14","1"
"05-009","05","Site 05","40","F","Hispanic","Treatment B","2015-11-26","Y","Endocrine disorders","10020850","Hyperthyroidism","Abnormally high level of thyroid gland hormon","161","198","N","MILD","PROBABLY RELATED","RESOLVED WITHOUT SEQUELAE","Y","2016-05-04","2016-06-10","2"
"05-010","05","Site 05","42","F","Hispanic","Placebo","2015-12-17","Y","Reproductive system and breast disorders","10003883","Azoospermia","Complete absence of sperm in semen","10","228","N","MODERATE","NOT RELATED","RECOVERED","N","2015-12-26","2016-07-31","1"
"05-010","05","Site 05","42","F","Hispanic","Placebo","2015-12-17","Y","Reproductive system and breast disorders","10065789","Fallopian tube obstruction","Blockage of Fallopian tube (tube between ovary to uterus [womb])","98","105","N","MILD","PROBABLY RELATED","RESOLVED, RECOVERED","N","2016-03-23","2016-03-30","2"
"05-010","05","Site 05","42","F","Hispanic","Placebo","2015-12-17","Y","Reproductive system and breast disorders","10043345","Testicular pain","Pain in the testis","213","260","N","MILD","NOT RELATED","RESOLVED WITHOUT SEQUELAE","N","2016-07-16","2016-09-01","3"
"05-011","05","Site 05","43","M","Black","Treatment A","2015-11-16","Y","Investigations","10007839","CD4 lymphocytes decreased","Decreased number of a type of white blood cell (lymphocyte","8","284","N","MODERATE","NOT RELATED","RESOLVED, RECOVERED","Y","2015-11-23","2016-08-25","1"
"05-011","05","Site 05","43","M","Black","Treatment A","2015-11-16","Y","Renal and urinary disorders","10063575","Bladder perforation","Hole in the bladder","161","202","N","MILD","UNLIKELY RELATED","RESOLVED WITH SEQUELAE","N","2016-04-24","2016-06-04","2"
"05-011","05","Site 05","43","M","Black","Treatment A","2015-11-16","Y","Injury, poisoning and procedura complications","10065712","Gastrointestinal stoma necrosis","Death of tissue (necrosis) of the digestive tract","217","286","N","MILD","POSSIBLY RELATED","RESOLVED WITH SEQUELAE","N","2016-06-19","2016-08-27","3"
"05-011","05","Site 05","43","M","Black","Treatment A","2015-11-16","Y","Hepatobiliary disorders","10019692","Hepatic necrosis","Death of liver tissue","282","286","N","SEVERE","NOT RELATED","RESOLVED WITH SEQUELAE","Y","2016-08-23","2016-08-27","4"
"05-011","05","Site 05","43","M","Black","Treatment A","2015-11-16","Y","Vascular disorders","10020772","Hypertension","High blood pressure","336","337","N","MILD","NOT RELATED","RECOVERED","N","2016-10-16","2016-10-17","5"
"05-012","05","Site 05","26","M","White","Placebo","2015-06-03","Y","Investigations","10047580","Vital capacity abnormal","Abnormal amount of air that is exhaled by following a maxima inhalation","185","297","N","MILD","NOT RELATED","RESOLVED, RECOVERED","N","2015-12-04","2016-03-25","1"
"05-012","05","Site 05","26","M","White","Placebo","2015-06-03","Y","General disorders and administration sit conditions","10022998","Irritability","Irritability","198","202","N","MILD","NOT RELATED","RESOLVED, RECOVERED","Y","2015-12-17","2015-12-21","2"
"05-012","05","Site 05","26","M","White","Placebo","2015-06-03","Y","Injury, poisoning and procedura complications","10065827","Intraoperative hepatobiliary injury","Damage to the liver during surgery","237","292","Y","MILD","NOT RELATED","RESOLVED, RECOVERED","N","2016-01-25","2016-03-20","3"
"05-012","05","Site 05","26","M","White","Placebo","2015-06-03","Y","Psychiatric disorders","10015533","Euphoria","Exaggerated feeling of well being","303","360","N","SEVERE","NOT RELATED","RECOVERED","Y","2016-03-31","2016-05-27","4"
"05-012","05","Site 05","26","M","White","Placebo","2015-06-03","Y","Vascular disorders","10054692","Visceral arterial ischemia","Blockage or narrowing of a visceral artery (a blood vessel tha carries blood from the heart) located in an internal organ","307","309","N","MODERATE","DEFINITELY RELEATED","RESOLVED WITHOUT SEQUELAE","N","2016-04-04","2016-04-06","5"
"05-013","05","Site 05","45","M","Black","Treatment A","2015-04-19","Y","Gastrointestinal disorders","10000060","Abdominal distension","Swelling or feeling of fullness and tightness in the abdomen (belly)","91","287","Y","MILD","UNLIKELY RELATED","RESOLVED, RECOVERED","N","2015-07-18","2016-01-30","1"
"05-013","05","Site 05","45","M","Black","Treatment A","2015-04-19","Y","Gastrointestinal disorders","10019611","Hemorrhoids","Hemorrhoids (swollen or irritated blood vessels in the anus an rectum).  Also known as piles.","198","264","N","MODERATE","NOT RELATED","RESOLVED, RECOVERED","N","2015-11-02","2016-01-07","2"
"05-013","05","Site 05","45","M","Black","Treatment A","2015-04-19","Y","Gastrointestinal disorders","10021328","Ileus","Partial or complete blockage of the small and/or large bowel.  Ileu is a functional rather than actual blockage of the bowel.","262","362","N","MILD","NOT RELATED","RESOLVED WITHOUT SEQUELAE","Y","2016-01-05","2016-04-14","3"
"05-014","05","Site 05","24","M","Black","Treatment B","2015-10-26","Y","Blood and lymphatic system disorders","10041633","Spleen disorder","Abnormality of the spleen","139","189","N","MODERATE","UNLIKELY RELATED","RECOVERED","N","2016-03-12","2016-05-01","1"
"05-015","05","Site 05","48","M","Other/Mixed","Treatment B","2015-10-16","Y","Gastrointestinal disorders","10021307","Ileal stenosis","Narrowing of a area of the small bowel (ileum","43","145","N","MILD","PROBABLY RELATED","RESOLVED, RECOVERED","N","2015-11-27","2016-03-08","1"
"05-015","05","Site 05","48","M","Other/Mixed","Treatment B","2015-10-16","Y","Infections and infestations","10037888","Rash pustular","Skin rash characterized by pus-containing blister","65","112","N","SEVERE","NOT RELATED","RESOLVED, RECOVERED","Y","2015-12-19","2016-02-04","2"
"05-015","05","Site 05","48","M","Other/Mixed","Treatment B","2015-10-16","Y","Metabolism and nutrition disorders","10012174","Dehydration","Dehydration (when your body does not have as much water an fluid as it should)","125","256","N","MILD","PROBABLY RELATED","RESOLVED WITH SEQUELAE","Y","2016-02-17","2016-06-27","3"
"05-016","05","Site 05","42","F","Black","Treatment B","2015-10-03","Y","Skin and subcutaneous tissue disorders","10034966","Photosensitivity","Increased skin sensitivity to sunligh","36","193","N","MILD","UNLIKELY RELATED","RECOVERED","Y","2015-11-07","2016-04-12","1"
"05-016","05","Site 05","42","F","Black","Treatment B","2015-10-03","Y","Renal and urinary disorders","10038463","Renal hemorrhage","Bleeding in the kidney","92","284","N","MILD","UNLIKELY RELATED","RESOLVED WITHOUT SEQUELAE","Y","2016-01-02","2016-07-12","2"
"05-016","05","Site 05","42","F","Black","Treatment B","2015-10-03","Y","Infections and infestations","10055078","Bronchial infection","Infection of the air tube from the windpipe to the lung","197","340","Y","SEVERE","POSSIBLY RELATED","RECOVERED","N","2016-04-16","2016-09-06","3"
"05-016","05","Site 05","42","F","Black","Treatment B","2015-10-03","Y","Nervous system disorders","10013911","Dysgeusia","Taste changes","260","284","N","SEVERE","NOT RELATED","RESOLVED, RECOVERED","Y","2016-06-18","2016-07-12","4"
"05-017","05","Site 05","40","M","White","Placebo","2015-02-07","Y","Gastrointestinal disorders","10031009","Oral pain","Mouth pain","82","324","N","MODERATE","NOT RELATED","RECOVERED","N","2015-04-29","2015-12-27","1"
"05-017","05","Site 05","40","M","White","Placebo","2015-02-07","Y","Nervous system disorders","10014217","Edema cerebral","Swelling in the brain","175","303","N","MILD","NOT RELATED","RESOLVED, RECOVERED","N","2015-07-31","2015-12-06","2"
"05-017","05","Site 05","40","M","White","Placebo","2015-02-07","Y","Immune system disorders","10052015","Cytokine release syndrome","Potentially life-threatening condition during a drug infusion which may cause low blood pressure, rash, fever, chills, difficulty breathing, rapid heartbeat, nausea, and kidney damage","230","263","N","MODERATE","NOT RELATED","RESOLVED WITHOUT SEQUELAE","N","2015-09-24","2015-10-27","3"
"05-017","05","Site 05","40","M","White","Placebo","2015-02-07","Y","Nervous system disorders","10003591","Ataxia","Loss of muscle coordination; awkward, uncoordinated walking unsteadiness when walking","347","364","N","MODERATE","UNLIKELY RELATED","RESOLVED WITH SEQUELAE","N","2016-01-19","2016-02-05","4"
"05-018","05","Site 05","40","M","Hispanic","Placebo","2015-07-04","Y","Vascular disorders","10043565","Thromboembolic event","Formation of a blood clot that plugs the blood vessel; blood clots may break loose and travel to another place, such as the lung","345","360","N","MILD","DEFINITELY RELEATED","RESOLVED WITHOUT SEQUELAE","Y","2016-06-12","2016-06-27","1"
"05-019","05","Site 05","36","F","White","Treatment A","2015-12-14","Y","General disorders and administration sit conditions","10016059","Facial pain","Face pain","116","147","N","MODERATE","NOT RELATED","RESOLVED, RECOVERED","Y","2016-04-07","2016-05-08","1"
"05-020","05","Site 05","42","F","Black","Placebo","2015-05-14","Y","Eye disorders","10038923","Retinopathy","Problem of the retina (a multi-layered sensory tissue that lines th back of the eye responsible for sight)","142","174","N","MILD","NOT RELATED","RESOLVED, RECOVERED","N","2015-10-02","2015-11-03","1"
"05-020","05","Site 05","42","F","Black","Placebo","2015-05-14","Y","Musculoskeletal and connective tissu disorders","10015688","Exostosis","Non-cancerous overgrowth of new bone on the surface of a bone","161","188","N","MILD","UNLIKELY RELATED","RESOLVED WITH SEQUELAE","N","2015-10-21","2015-11-17","2"
"05-020","05","Site 05","42","F","Black","Placebo","2015-05-14","Y","Cardiac disorders","10038748","Restrictive cardiomyopathy","Stiffness in the heart preventing the heart chambers to properly fil with blood","218","354","N","MODERATE","POSSIBLY RELATED","RESOLVED, RECOVERED","N","2015-12-17","2016-05-01","3"
"05-020","05","Site 05","42","F","Black","Placebo","2015-05-14","Y","Gastrointestinal disorders","10055226","Anal hemorrhage","bleeding in the anal region","251","322","N","MILD","DEFINITELY RELEATED","RECOVERED","Y","2016-01-19","2016-03-30","4"
"05-020","05","Site 05","42","F","Black","Placebo","2015-05-14","Y","Injury, poisoning and procedura complications","10065831","Intraoperative breast injury","Damage to the breast tissue during surgery","266","320","N","MILD","UNLIKELY RELATED","RESOLVED, RECOVERED","N","2016-02-03","2016-03-28","5"
"05-021","05","Site 05","32","M","Other/Mixed","Treatment A","2015-04-21","Y","Skin and subcutaneous tissue disorders","10062315","Lipohypertrophy","Accumulation of fat under the skin","106","114","N","MODERATE","NOT RELATED","RECOVERED","N","2015-08-04","2015-08-12","1"
"05-021","05","Site 05","32","M","Other/Mixed","Treatment A","2015-04-21","Y","Investigations","10035528","Platelet count decreased","Decreased number of a type of blood cell that helps to clot bloo (platelet)","130","276","N","MODERATE","NOT RELATED","RESOLVED, RECOVERED","N","2015-08-28","2016-01-21","2"
"05-022","05","Site 05","24","M","Hispanic","Treatment B","2015-04-15","Y","Endocrine disorders","10021041","Hypoparathyroidism","Abnormally low level of parathyroid glands hormon","88","353","N","MILD","PROBABLY RELATED","RESOLVED, RECOVERED","Y","2015-07-11","2016-04-01","1"
"05-022","05","Site 05","24","M","Hispanic","Treatment B","2015-04-15","Y","Nervous system disorders","10009845","Cognitive disturbance","Major change in thinking patterns","101","137","N","MILD","POSSIBLY RELATED","RECOVERED","Y","2015-07-24","2015-08-29","2"
"05-022","05","Site 05","24","M","Hispanic","Treatment B","2015-04-15","Y","Infections and infestations","10057262","Peritoneal infection","Infection of the lining of the abdominal cavit","258","292","N","MILD","UNLIKELY RELATED","RESOLVED WITH SEQUELAE","N","2015-12-28","2016-01-31","3"
"05-023","05","Site 05","29","F","Black","Placebo","2015-01-11","Y",,,,,,,,,,,,,,
"05-024","05","Site 05","48","M","Hispanic","Placebo","2015-04-16","Y","Gastrointestinal disorders","10021328","Ileus","Partial or complete blockage of the small and/or large bowel.  Ileu is a functional rather than actual blockage of the bowel.","83","124","N","MILD","POSSIBLY RELATED","RECOVERED","N","2015-07-07","2015-08-17","1"
"05-024","05","Site 05","48","M","Hispanic","Placebo","2015-04-16","Y","Musculoskeletal and connective tissu disorders","10048706","Joint range of motion decreased","Joint stiffness","328","362","N","MODERATE","NOT RELATED","RECOVERED","Y","2016-03-08","2016-04-11","2"
"05-024","05","Site 05","48","M","Hispanic","Placebo","2015-04-16","Y","Hepatobiliary disorders","10019692","Hepatic necrosis","Death of liver tissue","337","356","N","MILD","UNLIKELY RELATED","RESOLVED WITHOUT SEQUELAE","Y","2016-03-17","2016-04-05","3"
"05-025","05","Site 05","50","M","White","Treatment A","2015-08-10","Y","Infections and infestations","10046300","Upper respiratory infection","Infection of the upper respiratory tract (nose, sinuses, throat, win pipe, and voice box)","24","245","N","MILD","POSSIBLY RELATED","RESOLVED, RECOVERED","Y","2015-09-02","2016-04-10","1"
"05-025","05","Site 05","50","M","White","Treatment A","2015-08-10","Y","Infections and infestations","10023874","Laryngitis","Inflammation (swelling and redness) of the voice box (larynx) that i usually associated with hoarseness or loss of voice","103","254","Y","MILD","PROBABLY RELATED","RECOVERED","N","2015-11-20","2016-04-19","2"
"05-025","05","Site 05","50","M","White","Treatment A","2015-08-10","Y","Gastrointestinal disorders","10063190","Rectal mucositis","Irritation or sores in the lining of the rectum","111","351","N","MILD","NOT RELATED","RECOVERED","Y","2015-11-28","2016-07-25","3"
"05-025","05","Site 05","50","M","White","Treatment A","2015-08-10","Y","Reproductive system and breast disorders","10065813","Vaginal fistula","Abnormal hole between the vagina and another organ or tissue","149","254","N","MILD","DEFINITELY RELEATED","RESOLVED WITHOUT SEQUELAE","N","2016-01-05","2016-04-19","4"
"05-025","05","Site 05","50","M","White","Treatment A","2015-08-10","Y","General disorders and administration sit conditions","10011912","Death neonatal","Death of infant within 28 days of birth","246","344","N","MODERATE","NOT RELATED","RECOVERED","N","2016-04-11","2016-07-18","5"
"05-026","05","Site 05","41","M","Hispanic","Placebo","2015-11-10","Y","Musculoskeletal and connective tissu disorders","10028836","Neck pain","Neck pain","170","239","N","MODERATE","UNLIKELY RELATED","RECOVERED","Y","2016-04-27","2016-07-05","1"
"05-027","05","Site 05","32","M","Black","Placebo","2015-01-26","Y","Endocrine disorders","10021041","Hypoparathyroidism","Abnormally low level of parathyroid glands hormon","127","322","N","MODERATE","UNLIKELY RELATED","RESOLVED, RECOVERED","Y","2015-06-01","2015-12-13","1"
"05-027","05","Site 05","32","M","Black","Placebo","2015-01-26","Y","Reproductive system and breast disorders","10065789","Fallopian tube obstruction","Blockage of Fallopian tube (tube between ovary to uterus [womb])","211","256","N","MODERATE","NOT RELATED","RECOVERED","N","2015-08-24","2015-10-08","2"
"05-027","05","Site 05","32","M","Black","Placebo","2015-01-26","Y","Cardiac disorders","10040639","Sick sinus syndrome","Collection of heart rhythm signs/symptoms that include: Sinu bradycardia (a slow heartbeat, Tachycardias (a fast heartbeat), Bradycardia-tachycardia (an alternating slow and fast heart rhythms)","263","346","N","MILD","UNLIKELY RELATED","RECOVERED","N","2015-10-15","2016-01-06","3"
"05-028","05","Site 05","54","M","White","Treatment A","2015-03-01","Y","Investigations","10011268","CPK increased","Increased blood level of enzyme (creatine phosphokinase) fro muscle","101","359","N","MILD","POSSIBLY RELATED","RESOLVED WITH SEQUELAE","N","2015-06-09","2016-02-22","1"
"05-028","05","Site 05","54","M","White","Treatment A","2015-03-01","Y","Gastrointestinal disorders","10045271","Typhlitis","Imflammation (swelling and redness) and/or necrosis (death o tissue) of the appendix. cecum, and/or ileum (both areas of the large bowel)","248","348","N","MODERATE","NOT RELATED","RESOLVED WITHOUT SEQUELAE","N","2015-11-03","2016-02-11","2"
"05-028","05","Site 05","54","M","White","Treatment A","2015-03-01","Y","Gastrointestinal disorders","10018286","Gingival pain","Pain in the gums","318","362","N","MILD","DEFINITELY RELEATED","RESOLVED WITHOUT SEQUELAE","Y","2016-01-12","2016-02-25","3"
"05-029","05","Site 05","42","M","Other/Mixed","Treatment A","2015-12-02","Y","Blood and lymphatic system disorders","10041633","Spleen disorder","Abnormality of the spleen","93","169","N","MODERATE","DEFINITELY RELEATED","RECOVERED","N","2016-03-03","2016-05-18","1"
"05-029","05","Site 05","42","M","Other/Mixed","Treatment A","2015-12-02","Y","Respiratory, thoracic and mediastina disorders","10059639","Laryngeal obstruction","Blockage of or in the voice box","103","294","Y","MILD","NOT RELATED","RESOLVED, RECOVERED","Y","2016-03-13","2016-09-20","2"
"05-030","05","Site 05","35","M","White","Placebo","2015-10-02","Y","Infections and infestations","10021918","Infective myositis","Infection of skeletal muscles","129","138","N","MILD","PROBABLY RELATED","RESOLVED, RECOVERED","N","2016-02-07","2016-02-16","1"
"05-030","05","Site 05","35","M","White","Placebo","2015-10-02","Y","Musculoskeletal and connective tissu disorders","10065778","Soft tissue necrosis upper limb","Death of soft tissue of the arms","145","153","N","MILD","NOT RELATED","RESOLVED, RECOVERED","Y","2016-02-23","2016-03-02","2"
"05-030","05","Site 05","35","M","White","Placebo","2015-10-02","Y","Cardiac disorders","10061589","Aortic valve disease","Abnormal function of the aortic valve (one of the four valves in th heart)","215","230","N","MILD","DEFINITELY RELEATED","RECOVERED","N","2016-05-03","2016-05-18","3"
