"USUBJID","SITEID","SITE","AGE","SEX","RACE","ARM","RFSTDTC","SAFFL","RANDDT","RANDDY","COMPLDT","COMPLDY","ANYAEFL","ANYCMFL","AVISIT","AVISITN","ADT","ADY","PARAMCAT","PARAM","AVAL","ANRLO","ANRHI"
"01-001","01","Site 01","30","F","Other/Mixed","Placebo","2015-05-21","Y","2015-07-17","58","2016-05-09","355","Y","Y","Screening","0","2015-05-21","1","Blood","Platelet count (x 109/L)","73.9216799073289","150","350"
"01-001","01","Site 01","30","F","Other/Mixed","Placebo","2015-05-21","Y","2015-07-17","58","2016-05-09","355","Y","Y","Screening","0","2015-05-21","1","Blood","RBC count (x 1012 cells/L)","5.73306802044415","4.2","5.9"
"01-001","01","Site 01","30","F","Other/Mixed","Placebo","2015-05-21","Y","2015-07-17","58","2016-05-09","355","Y","Y","Screening","0","2015-05-21","1","Blood","WBC count (x 109 cells/L)","5.36456259077355","4.5","11"
"01-001","01","Site 01","30","F","Other/Mixed","Placebo","2015-05-21","Y","2015-07-17","58","2016-05-09","355","Y","Y","Screening","0","2015-05-21","1","Serum","Albumin (g/L)","48.8951754817963","35","55"
"01-001","01","Site 01","30","F","Other/Mixed","Placebo","2015-05-21","Y","2015-07-17","58","2016-05-09","355","Y","Y","Screening","0","2015-05-21","1","Serum","Alkaline phosphatase (ALP) (µkat/L)","","0.5","1.5"
"01-001","01","Site 01","30","F","Other/Mixed","Placebo","2015-05-21","Y","2015-07-17","58","2016-05-09","355","Y","Y","Screening","0","2015-05-21","1","Serum","Aminotransferase, alanine (ALT) (pkat/L)","0","0","0.58"
"01-001","01","Site 01","30","F","Other/Mixed","Placebo","2015-05-21","Y","2015-07-17","58","2016-05-09","355","Y","Y","Screening","0","2015-05-21","1","Serum","Aminotransferase, aspartate (AST) (pkat/L)","0.230454585959809","0","0.58"
"01-001","01","Site 01","30","F","Other/Mixed","Placebo","2015-05-21","Y","2015-07-17","58","2016-05-09","355","Y","Y","Screening","0","2015-05-21","1","Serum","Calcium (mmol/L)","2.40364284621797","2.2","2.6"
"01-001","01","Site 01","30","F","Other/Mixed","Placebo","2015-05-21","Y","2015-07-17","58","2016-05-09","355","Y","Y","Screening","0","2015-05-21","1","Serum","Chloride (mmol/L)","101.977738128482","98","106"
"01-001","01","Site 01","30","F","Other/Mixed","Placebo","2015-05-21","Y","2015-07-17","58","2016-05-09","355","Y","Y","Screening","0","2015-05-21","1","Serum","Creatinine (µmol/L)","54.9522524666975","61.9","115"
"01-001","01","Site 01","30","F","Other/Mixed","Placebo","2015-05-21","Y","2015-07-17","58","2016-05-09","355","Y","Y","Screening","0","2015-05-21","1","Serum","Direct Bilirubin (µmol/L)","3.17702878376026","0","5.1"
"01-001","01","Site 01","30","F","Other/Mixed","Placebo","2015-05-21","Y","2015-07-17","58","2016-05-09","355","Y","Y","Screening","0","2015-05-21","1","Serum","IgE (mg/L)","0.0607685666438798","0.1","0.4"
"01-001","01","Site 01","30","F","Other/Mixed","Placebo","2015-05-21","Y","2015-07-17","58","2016-05-09","355","Y","Y","Screening","0","2015-05-21","1","Serum","Magnesium (mmol/L)","0.671342726996378","0.62","0.99"
"01-001","01","Site 01","30","F","Other/Mixed","Placebo","2015-05-21","Y","2015-07-17","58","2016-05-09","355","Y","Y","Screening","0","2015-05-21","1","Serum","Potassium (mmol/L)","2.9714672889195","3.5","5"
"01-001","01","Site 01","30","F","Other/Mixed","Placebo","2015-05-21","Y","2015-07-17","58","2016-05-09","355","Y","Y","Screening","0","2015-05-21","1","Serum","Sodium (mmol/L)","144.559968626885","136","145"
"01-001","01","Site 01","30","F","Other/Mixed","Placebo","2015-05-21","Y","2015-07-17","58","2016-05-09","355","Y","Y","Screening","0","2015-05-21","1","Serum","Total Bilirubin (µmol/L)","28.7068580552978","5.1","20.5"
"01-001","01","Site 01","30","F","Other/Mixed","Placebo","2015-05-21","Y","2015-07-17","58","2016-05-09","355","Y","Y","Visit 1","1","2015-07-17","58","Blood","Platelet count (x 109/L)","295.133147295951","150","350"
"01-001","01","Site 01","30","F","Other/Mixed","Placebo","2015-05-21","Y","2015-07-17","58","2016-05-09","355","Y","Y","Visit 1","1","2015-07-17","58","Blood","RBC count (x 1012 cells/L)","4.52362139757257","4.2","5.9"
"01-001","01","Site 01","30","F","Other/Mixed","Placebo","2015-05-21","Y","2015-07-17","58","2016-05-09","355","Y","Y","Visit 1","1","2015-07-17","58","Blood","WBC count (x 109 cells/L)","9.78481972051961","4.5","11"
"01-001","01","Site 01","30","F","Other/Mixed","Placebo","2015-05-21","Y","2015-07-17","58","2016-05-09","355","Y","Y","Visit 1","1","2015-07-17","58","Serum","Albumin (g/L)","53.6771105731966","35","55"
"01-001","01","Site 01","30","F","Other/Mixed","Placebo","2015-05-21","Y","2015-07-17","58","2016-05-09","355","Y","Y","Visit 1","1","2015-07-17","58","Serum","Alkaline phosphatase (ALP) (µkat/L)","0.617051970163285","0.5","1.5"
"01-001","01","Site 01","30","F","Other/Mixed","Placebo","2015-05-21","Y","2015-07-17","58","2016-05-09","355","Y","Y","Visit 1","1","2015-07-17","58","Serum","Aminotransferase, alanine (ALT) (pkat/L)","0.300926047510991","0","0.58"
"01-001","01","Site 01","30","F","Other/Mixed","Placebo","2015-05-21","Y","2015-07-17","58","2016-05-09","355","Y","Y","Visit 1","1","2015-07-17","58","Serum","Aminotransferase, aspartate (AST) (pkat/L)","0","0","0.58"
"01-001","01","Site 01","30","F","Other/Mixed","Placebo","2015-05-21","Y","2015-07-17","58","2016-05-09","355","Y","Y","Visit 1","1","2015-07-17","58","Serum","Calcium (mmol/L)","2.747644933767","2.2","2.6"
"01-001","01","Site 01","30","F","Other/Mixed","Placebo","2015-05-21","Y","2015-07-17","58","2016-05-09","355","Y","Y","Visit 1","1","2015-07-17","58","Serum","Chloride (mmol/L)","","98","106"
"01-001","01","Site 01","30","F","Other/Mixed","Placebo","2015-05-21","Y","2015-07-17","58","2016-05-09","355","Y","Y","Visit 1","1","2015-07-17","58","Serum","Creatinine (µmol/L)","31.7473259113718","61.9","115"
"01-001","01","Site 01","30","F","Other/Mixed","Placebo","2015-05-21","Y","2015-07-17","58","2016-05-09","355","Y","Y","Visit 1","1","2015-07-17","58","Serum","Direct Bilirubin (µmol/L)","1.83234574527008","0","5.1"
"01-001","01","Site 01","30","F","Other/Mixed","Placebo","2015-05-21","Y","2015-07-17","58","2016-05-09","355","Y","Y","Visit 1","1","2015-07-17","58","Serum","IgE (mg/L)","0.148341857697348","0.1","0.4"
"01-001","01","Site 01","30","F","Other/Mixed","Placebo","2015-05-21","Y","2015-07-17","58","2016-05-09","355","Y","Y","Visit 1","1","2015-07-17","58","Serum","Magnesium (mmol/L)","0.915498917650744","0.62","0.99"
"01-001","01","Site 01","30","F","Other/Mixed","Placebo","2015-05-21","Y","2015-07-17","58","2016-05-09","355","Y","Y","Visit 1","1","2015-07-17","58","Serum","Potassium (mmol/L)","4.04035321731168","3.5","5"
"01-001","01","Site 01","30","F","Other/Mixed","Placebo","2015-05-21","Y","2015-07-17","58","2016-05-09","355","Y","Y","Visit 1","1","2015-07-17","58","Serum","Sodium (mmol/L)","144.904381724821","136","145"
"01-001","01","Site 01","30","F","Other/Mixed","Placebo","2015-05-21","Y","2015-07-17","58","2016-05-09","355","Y","Y","Visit 1","1","2015-07-17","58","Serum","Total Bilirubin (µmol/L)","18.1608605968951","5.1","20.5"
"01-001","01","Site 01","30","F","Other/Mixed","Placebo","2015-05-21","Y","2015-07-17","58","2016-05-09","355","Y","Y","Visit 2","2","2015-09-04","107","Blood","Platelet count (x 109/L)","210.526405581847","150","350"
"01-001","01","Site 01","30","F","Other/Mixed","Placebo","2015-05-21","Y","2015-07-17","58","2016-05-09","355","Y","Y","Visit 2","2","2015-09-04","107","Blood","RBC count (x 1012 cells/L)","3.89772984219502","4.2","5.9"
"01-001","01","Site 01","30","F","Other/Mixed","Placebo","2015-05-21","Y","2015-07-17","58","2016-05-09","355","Y","Y","Visit 2","2","2015-09-04","107","Blood","WBC count (x 109 cells/L)","","4.5","11"
"01-001","01","Site 01","30","F","Other/Mixed","Placebo","2015-05-21","Y","2015-07-17","58","2016-05-09","355","Y","Y","Visit 2","2","2015-09-04","107","Serum","Albumin (g/L)","50.6477376065677","35","55"
"01-001","01","Site 01","30","F","Other/Mixed","Placebo","2015-05-21","Y","2015-07-17","58","2016-05-09","355","Y","Y","Visit 2","2","2015-09-04","107","Serum","Alkaline phosphatase (ALP) (µkat/L)","0.96943733296846","0.5","1.5"
"01-001","01","Site 01","30","F","Other/Mixed","Placebo","2015-05-21","Y","2015-07-17","58","2016-05-09","355","Y","Y","Visit 2","2","2015-09-04","107","Serum","Aminotransferase, alanine (ALT) (pkat/L)","0.0987605029988369","0","0.58"
"01-001","01","Site 01","30","F","Other/Mixed","Placebo","2015-05-21","Y","2015-07-17","58","2016-05-09","355","Y","Y","Visit 2","2","2015-09-04","107","Serum","Aminotransferase, aspartate (AST) (pkat/L)","0.398684801032776","0","0.58"
"01-001","01","Site 01","30","F","Other/Mixed","Placebo","2015-05-21","Y","2015-07-17","58","2016-05-09","355","Y","Y","Visit 2","2","2015-09-04","107","Serum","Calcium (mmol/L)","2.68664699718718","2.2","2.6"
"01-001","01","Site 01","30","F","Other/Mixed","Placebo","2015-05-21","Y","2015-07-17","58","2016-05-09","355","Y","Y","Visit 2","2","2015-09-04","107","Serum","Chloride (mmol/L)","101.775787846845","98","106"
"01-001","01","Site 01","30","F","Other/Mixed","Placebo","2015-05-21","Y","2015-07-17","58","2016-05-09","355","Y","Y","Visit 2","2","2015-09-04","107","Serum","Creatinine (µmol/L)","63.5098720681291","61.9","115"
"01-001","01","Site 01","30","F","Other/Mixed","Placebo","2015-05-21","Y","2015-07-17","58","2016-05-09","355","Y","Y","Visit 2","2","2015-09-04","107","Serum","Direct Bilirubin (µmol/L)","0.117785498221554","0","5.1"
"01-001","01","Site 01","30","F","Other/Mixed","Placebo","2015-05-21","Y","2015-07-17","58","2016-05-09","355","Y","Y","Visit 2","2","2015-09-04","107","Serum","IgE (mg/L)","0.282980834483","0.1","0.4"
"01-001","01","Site 01","30","F","Other/Mixed","Placebo","2015-05-21","Y","2015-07-17","58","2016-05-09","355","Y","Y","Visit 2","2","2015-09-04","107","Serum","Magnesium (mmol/L)","1.06003938274269","0.62","0.99"
"01-001","01","Site 01","30","F","Other/Mixed","Placebo","2015-05-21","Y","2015-07-17","58","2016-05-09","355","Y","Y","Visit 2","2","2015-09-04","107","Serum","Potassium (mmol/L)","4.66593579558087","3.5","5"
"01-001","01","Site 01","30","F","Other/Mixed","Placebo","2015-05-21","Y","2015-07-17","58","2016-05-09","355","Y","Y","Visit 2","2","2015-09-04","107","Serum","Sodium (mmol/L)","144.038960616888","136","145"
"01-001","01","Site 01","30","F","Other/Mixed","Placebo","2015-05-21","Y","2015-07-17","58","2016-05-09","355","Y","Y","Visit 2","2","2015-09-04","107","Serum","Total Bilirubin (µmol/L)","14.4584676078576","5.1","20.5"
"01-001","01","Site 01","30","F","Other/Mixed","Placebo","2015-05-21","Y","2015-07-17","58","2016-05-09","355","Y","Y","Visit 3","3","2015-10-29","162","Blood","Platelet count (x 109/L)","379.422736215712","150","350"
"01-001","01","Site 01","30","F","Other/Mixed","Placebo","2015-05-21","Y","2015-07-17","58","2016-05-09","355","Y","Y","Visit 3","3","2015-10-29","162","Blood","RBC count (x 1012 cells/L)","5.29357870243644","4.2","5.9"
"01-001","01","Site 01","30","F","Other/Mixed","Placebo","2015-05-21","Y","2015-07-17","58","2016-05-09","355","Y","Y","Visit 3","3","2015-10-29","162","Blood","WBC count (x 109 cells/L)","1.08220907759321","4.5","11"
"01-001","01","Site 01","30","F","Other/Mixed","Placebo","2015-05-21","Y","2015-07-17","58","2016-05-09","355","Y","Y","Visit 3","3","2015-10-29","162","Serum","Albumin (g/L)","40.9352865412019","35","55"
"01-001","01","Site 01","30","F","Other/Mixed","Placebo","2015-05-21","Y","2015-07-17","58","2016-05-09","355","Y","Y","Visit 3","3","2015-10-29","162","Serum","Alkaline phosphatase (ALP) (µkat/L)","1.03753773086815","0.5","1.5"
"01-001","01","Site 01","30","F","Other/Mixed","Placebo","2015-05-21","Y","2015-07-17","58","2016-05-09","355","Y","Y","Visit 3","3","2015-10-29","162","Serum","Aminotransferase, alanine (ALT) (pkat/L)","0","0","0.58"
"01-001","01","Site 01","30","F","Other/Mixed","Placebo","2015-05-21","Y","2015-07-17","58","2016-05-09","355","Y","Y","Visit 3","3","2015-10-29","162","Serum","Aminotransferase, aspartate (AST) (pkat/L)","0","0","0.58"
"01-001","01","Site 01","30","F","Other/Mixed","Placebo","2015-05-21","Y","2015-07-17","58","2016-05-09","355","Y","Y","Visit 3","3","2015-10-29","162","Serum","Calcium (mmol/L)","1.99691846521027","2.2","2.6"
"01-001","01","Site 01","30","F","Other/Mixed","Placebo","2015-05-21","Y","2015-07-17","58","2016-05-09","355","Y","Y","Visit 3","3","2015-10-29","162","Serum","Chloride (mmol/L)","102.058360751085","98","106"
"01-001","01","Site 01","30","F","Other/Mixed","Placebo","2015-05-21","Y","2015-07-17","58","2016-05-09","355","Y","Y","Visit 3","3","2015-10-29","162","Serum","Creatinine (µmol/L)","83.7500879031514","61.9","115"
"01-001","01","Site 01","30","F","Other/Mixed","Placebo","2015-05-21","Y","2015-07-17","58","2016-05-09","355","Y","Y","Visit 3","3","2015-10-29","162","Serum","Direct Bilirubin (µmol/L)","1.93316006105932","0","5.1"
"01-001","01","Site 01","30","F","Other/Mixed","Placebo","2015-05-21","Y","2015-07-17","58","2016-05-09","355","Y","Y","Visit 3","3","2015-10-29","162","Serum","IgE (mg/L)","0.267821304243956","0.1","0.4"
"01-001","01","Site 01","30","F","Other/Mixed","Placebo","2015-05-21","Y","2015-07-17","58","2016-05-09","355","Y","Y","Visit 3","3","2015-10-29","162","Serum","Magnesium (mmol/L)","0.66411072342421","0.62","0.99"
"01-001","01","Site 01","30","F","Other/Mixed","Placebo","2015-05-21","Y","2015-07-17","58","2016-05-09","355","Y","Y","Visit 3","3","2015-10-29","162","Serum","Potassium (mmol/L)","5.14411601922635","3.5","5"
"01-001","01","Site 01","30","F","Other/Mixed","Placebo","2015-05-21","Y","2015-07-17","58","2016-05-09","355","Y","Y","Visit 3","3","2015-10-29","162","Serum","Sodium (mmol/L)","","136","145"
"01-001","01","Site 01","30","F","Other/Mixed","Placebo","2015-05-21","Y","2015-07-17","58","2016-05-09","355","Y","Y","Visit 3","3","2015-10-29","162","Serum","Total Bilirubin (µmol/L)","22.8563889839518","5.1","20.5"
"01-001","01","Site 01","30","F","Other/Mixed","Placebo","2015-05-21","Y","2015-07-17","58","2016-05-09","355","Y","Y","Unscheduled 3.1","3.1","2015-11-06","170","Blood","Platelet count (x 109/L)","266.956197066623","150","350"
"01-001","01","Site 01","30","F","Other/Mixed","Placebo","2015-05-21","Y","2015-07-17","58","2016-05-09","355","Y","Y","Unscheduled 3.1","3.1","2015-11-06","170","Blood","RBC count (x 1012 cells/L)","5.30449288631539","4.2","5.9"
"01-001","01","Site 01","30","F","Other/Mixed","Placebo","2015-05-21","Y","2015-07-17","58","2016-05-09","355","Y","Y","Unscheduled 3.1","3.1","2015-11-06","170","Blood","WBC count (x 109 cells/L)","9.80758435683516","4.5","11"
"01-001","01","Site 01","30","F","Other/Mixed","Placebo","2015-05-21","Y","2015-07-17","58","2016-05-09","355","Y","Y","Unscheduled 3.1","3.1","2015-11-06","170","Serum","Albumin (g/L)","49.7808297136377","35","55"
"01-001","01","Site 01","30","F","Other/Mixed","Placebo","2015-05-21","Y","2015-07-17","58","2016-05-09","355","Y","Y","Unscheduled 3.1","3.1","2015-11-06","170","Serum","Alkaline phosphatase (ALP) (µkat/L)","0.904530281533516","0.5","1.5"
"01-001","01","Site 01","30","F","Other/Mixed","Placebo","2015-05-21","Y","2015-07-17","58","2016-05-09","355","Y","Y","Unscheduled 3.1","3.1","2015-11-06","170","Serum","Aminotransferase, alanine (ALT) (pkat/L)","0.419277490110206","0","0.58"
"01-001","01","Site 01","30","F","Other/Mixed","Placebo","2015-05-21","Y","2015-07-17","58","2016-05-09","355","Y","Y","Unscheduled 3.1","3.1","2015-11-06","170","Serum","Aminotransferase, aspartate (AST) (pkat/L)","0.356221243849836","0","0.58"
"01-001","01","Site 01","30","F","Other/Mixed","Placebo","2015-05-21","Y","2015-07-17","58","2016-05-09","355","Y","Y","Unscheduled 3.1","3.1","2015-11-06","170","Serum","Calcium (mmol/L)","2.39381305408797","2.2","2.6"
"01-001","01","Site 01","30","F","Other/Mixed","Placebo","2015-05-21","Y","2015-07-17","58","2016-05-09","355","Y","Y","Unscheduled 3.1","3.1","2015-11-06","170","Serum","Chloride (mmol/L)","105.164704547483","98","106"
"01-001","01","Site 01","30","F","Other/Mixed","Placebo","2015-05-21","Y","2015-07-17","58","2016-05-09","355","Y","Y","Unscheduled 3.1","3.1","2015-11-06","170","Serum","Creatinine (µmol/L)","72.1618402191612","61.9","115"
"01-001","01","Site 01","30","F","Other/Mixed","Placebo","2015-05-21","Y","2015-07-17","58","2016-05-09","355","Y","Y","Unscheduled 3.1","3.1","2015-11-06","170","Serum","Direct Bilirubin (µmol/L)","1.2215754309901","0","5.1"
"01-001","01","Site 01","30","F","Other/Mixed","Placebo","2015-05-21","Y","2015-07-17","58","2016-05-09","355","Y","Y","Unscheduled 3.1","3.1","2015-11-06","170","Serum","IgE (mg/L)","0.362410726928693","0.1","0.4"
"01-001","01","Site 01","30","F","Other/Mixed","Placebo","2015-05-21","Y","2015-07-17","58","2016-05-09","355","Y","Y","Unscheduled 3.1","3.1","2015-11-06","170","Serum","Magnesium (mmol/L)","0.859837302250049","0.62","0.99"
"01-001","01","Site 01","30","F","Other/Mixed","Placebo","2015-05-21","Y","2015-07-17","58","2016-05-09","355","Y","Y","Unscheduled 3.1","3.1","2015-11-06","170","Serum","Potassium (mmol/L)","3.1431655630325","3.5","5"
"01-001","01","Site 01","30","F","Other/Mixed","Placebo","2015-05-21","Y","2015-07-17","58","2016-05-09","355","Y","Y","Unscheduled 3.1","3.1","2015-11-06","170","Serum","Sodium (mmol/L)","140.318374215466","136","145"
"01-001","01","Site 01","30","F","Other/Mixed","Placebo","2015-05-21","Y","2015-07-17","58","2016-05-09","355","Y","Y","Unscheduled 3.1","3.1","2015-11-06","170","Serum","Total Bilirubin (µmol/L)","3.45226470818673","5.1","20.5"
"01-001","01","Site 01","30","F","Other/Mixed","Placebo","2015-05-21","Y","2015-07-17","58","2016-05-09","355","Y","Y","Visit 4","4","2015-12-24","218","Blood","Platelet count (x 109/L)","411.559540660714","150","350"
"01-001","01","Site 01","30","F","Other/Mixed","Placebo","2015-05-21","Y","2015-07-17","58","2016-05-09","355","Y","Y","Visit 4","4","2015-12-24","218","Blood","RBC count (x 1012 cells/L)","3.76575681268297","4.2","5.9"
"01-001","01","Site 01","30","F","Other/Mixed","Placebo","2015-05-21","Y","2015-07-17","58","2016-05-09","355","Y","Y","Visit 4","4","2015-12-24","218","Blood","WBC count (x 109 cells/L)","11.8172985497157","4.5","11"
"01-001","01","Site 01","30","F","Other/Mixed","Placebo","2015-05-21","Y","2015-07-17","58","2016-05-09","355","Y","Y","Visit 4","4","2015-12-24","218","Serum","Albumin (g/L)","42.9231432325227","35","55"
"01-001","01","Site 01","30","F","Other/Mixed","Placebo","2015-05-21","Y","2015-07-17","58","2016-05-09","355","Y","Y","Visit 4","4","2015-12-24","218","Serum","Alkaline phosphatase (ALP) (µkat/L)","1.27026248970029","0.5","1.5"
"01-001","01","Site 01","30","F","Other/Mixed","Placebo","2015-05-21","Y","2015-07-17","58","2016-05-09","355","Y","Y","Visit 4","4","2015-12-24","218","Serum","Aminotransferase, alanine (ALT) (pkat/L)","0.524351713432945","0","0.58"
"01-001","01","Site 01","30","F","Other/Mixed","Placebo","2015-05-21","Y","2015-07-17","58","2016-05-09","355","Y","Y","Visit 4","4","2015-12-24","218","Serum","Aminotransferase, aspartate (AST) (pkat/L)","0.357285727530329","0","0.58"
"01-001","01","Site 01","30","F","Other/Mixed","Placebo","2015-05-21","Y","2015-07-17","58","2016-05-09","355","Y","Y","Visit 4","4","2015-12-24","218","Serum","Calcium (mmol/L)","","2.2","2.6"
"01-001","01","Site 01","30","F","Other/Mixed","Placebo","2015-05-21","Y","2015-07-17","58","2016-05-09","355","Y","Y","Visit 4","4","2015-12-24","218","Serum","Chloride (mmol/L)","102.070454802248","98","106"
"01-001","01","Site 01","30","F","Other/Mixed","Placebo","2015-05-21","Y","2015-07-17","58","2016-05-09","355","Y","Y","Visit 4","4","2015-12-24","218","Serum","Creatinine (µmol/L)","68.9151216120385","61.9","115"
"01-001","01","Site 01","30","F","Other/Mixed","Placebo","2015-05-21","Y","2015-07-17","58","2016-05-09","355","Y","Y","Visit 4","4","2015-12-24","218","Serum","Direct Bilirubin (µmol/L)","4.90346160027636","0","5.1"
"01-001","01","Site 01","30","F","Other/Mixed","Placebo","2015-05-21","Y","2015-07-17","58","2016-05-09","355","Y","Y","Visit 4","4","2015-12-24","218","Serum","IgE (mg/L)","0.483463217915164","0.1","0.4"
"01-001","01","Site 01","30","F","Other/Mixed","Placebo","2015-05-21","Y","2015-07-17","58","2016-05-09","355","Y","Y","Visit 4","4","2015-12-24","218","Serum","Magnesium (mmol/L)","0.580954072233235","0.62","0.99"
"01-001","01","Site 01","30","F","Other/Mixed","Placebo","2015-05-21","Y","2015-07-17","58","2016-05-09","355","Y","Y","Visit 4","4","2015-12-24","218","Serum","Potassium (mmol/L)","4.80061009624532","3.5","5"
"01-001","01","Site 01","30","F","Other/Mixed","Placebo","2015-05-21","Y","2015-07-17","58","2016-05-09","355","Y","Y","Visit 4","4","2015-12-24","218","Serum","Sodium (mmol/L)","142.840314866839","136","145"
"01-001","01","Site 01","30","F","Other/Mixed","Placebo","2015-05-21","Y","2015-07-17","58","2016-05-09","355","Y","Y","Visit 4","4","2015-12-24","218","Serum","Total Bilirubin (µmol/L)","","5.1","20.5"
"01-001","01","Site 01","30","F","Other/Mixed","Placebo","2015-05-21","Y","2015-07-17","58","2016-05-09","355","Y","Y","Visit 5","5","2016-02-28","284","Blood","Platelet count (x 109/L)","103.89990587582","150","350"
"01-001","01","Site 01","30","F","Other/Mixed","Placebo","2015-05-21","Y","2015-07-17","58","2016-05-09","355","Y","Y","Visit 5","5","2016-02-28","284","Blood","RBC count (x 1012 cells/L)","5.28752266880987","4.2","5.9"
"01-001","01","Site 01","30","F","Other/Mixed","Placebo","2015-05-21","Y","2015-07-17","58","2016-05-09","355","Y","Y","Visit 5","5","2016-02-28","284","Blood","WBC count (x 109 cells/L)","","4.5","11"
"01-001","01","Site 01","30","F","Other/Mixed","Placebo","2015-05-21","Y","2015-07-17","58","2016-05-09","355","Y","Y","Visit 5","5","2016-02-28","284","Serum","Albumin (g/L)","40.4973596954642","35","55"
"01-001","01","Site 01","30","F","Other/Mixed","Placebo","2015-05-21","Y","2015-07-17","58","2016-05-09","355","Y","Y","Visit 5","5","2016-02-28","284","Serum","Alkaline phosphatase (ALP) (µkat/L)","1.46652826950021","0.5","1.5"
"01-001","01","Site 01","30","F","Other/Mixed","Placebo","2015-05-21","Y","2015-07-17","58","2016-05-09","355","Y","Y","Visit 5","5","2016-02-28","284","Serum","Aminotransferase, alanine (ALT) (pkat/L)","0.556524116745351","0","0.58"
"01-001","01","Site 01","30","F","Other/Mixed","Placebo","2015-05-21","Y","2015-07-17","58","2016-05-09","355","Y","Y","Visit 5","5","2016-02-28","284","Serum","Aminotransferase, aspartate (AST) (pkat/L)","0","0","0.58"
"01-001","01","Site 01","30","F","Other/Mixed","Placebo","2015-05-21","Y","2015-07-17","58","2016-05-09","355","Y","Y","Visit 5","5","2016-02-28","284","Serum","Calcium (mmol/L)","2.37699420670435","2.2","2.6"
"01-001","01","Site 01","30","F","Other/Mixed","Placebo","2015-05-21","Y","2015-07-17","58","2016-05-09","355","Y","Y","Visit 5","5","2016-02-28","284","Serum","Chloride (mmol/L)","92.7189184478615","98","106"
"01-001","01","Site 01","30","F","Other/Mixed","Placebo","2015-05-21","Y","2015-07-17","58","2016-05-09","355","Y","Y","Visit 5","5","2016-02-28","284","Serum","Creatinine (µmol/L)","67.0390265713637","61.9","115"
"01-001","01","Site 01","30","F","Other/Mixed","Placebo","2015-05-21","Y","2015-07-17","58","2016-05-09","355","Y","Y","Visit 5","5","2016-02-28","284","Serum","Direct Bilirubin (µmol/L)","3.16978772090776","0","5.1"
"01-001","01","Site 01","30","F","Other/Mixed","Placebo","2015-05-21","Y","2015-07-17","58","2016-05-09","355","Y","Y","Visit 5","5","2016-02-28","284","Serum","IgE (mg/L)","0.338095648167025","0.1","0.4"
"01-001","01","Site 01","30","F","Other/Mixed","Placebo","2015-05-21","Y","2015-07-17","58","2016-05-09","355","Y","Y","Visit 5","5","2016-02-28","284","Serum","Magnesium (mmol/L)","","0.62","0.99"
"01-001","01","Site 01","30","F","Other/Mixed","Placebo","2015-05-21","Y","2015-07-17","58","2016-05-09","355","Y","Y","Visit 5","5","2016-02-28","284","Serum","Potassium (mmol/L)","","3.5","5"
"01-001","01","Site 01","30","F","Other/Mixed","Placebo","2015-05-21","Y","2015-07-17","58","2016-05-09","355","Y","Y","Visit 5","5","2016-02-28","284","Serum","Sodium (mmol/L)","139.064678138318","136","145"
"01-001","01","Site 01","30","F","Other/Mixed","Placebo","2015-05-21","Y","2015-07-17","58","2016-05-09","355","Y","Y","Visit 5","5","2016-02-28","284","Serum","Total Bilirubin (µmol/L)","28.6434683510413","5.1","20.5"
"01-001","01","Site 01","30","F","Other/Mixed","Placebo","2015-05-21","Y","2015-07-17","58","2016-05-09","355","Y","Y","Visit 6","6","2016-04-20","336","Blood","Platelet count (x 109/L)","303.03852367261","150","350"
"01-001","01","Site 01","30","F","Other/Mixed","Placebo","2015-05-21","Y","2015-07-17","58","2016-05-09","355","Y","Y","Visit 6","6","2016-04-20","336","Blood","RBC count (x 1012 cells/L)","","4.2","5.9"
"01-001","01","Site 01","30","F","Other/Mixed","Placebo","2015-05-21","Y","2015-07-17","58","2016-05-09","355","Y","Y","Visit 6","6","2016-04-20","336","Blood","WBC count (x 109 cells/L)","","4.5","11"
"01-001","01","Site 01","30","F","Other/Mixed","Placebo","2015-05-21","Y","2015-07-17","58","2016-05-09","355","Y","Y","Visit 6","6","2016-04-20","336","Serum","Albumin (g/L)","30.4904182136382","35","55"
"01-001","01","Site 01","30","F","Other/Mixed","Placebo","2015-05-21","Y","2015-07-17","58","2016-05-09","355","Y","Y","Visit 6","6","2016-04-20","336","Serum","Alkaline phosphatase (ALP) (µkat/L)","1.29740444342686","0.5","1.5"
"01-001","01","Site 01","30","F","Other/Mixed","Placebo","2015-05-21","Y","2015-07-17","58","2016-05-09","355","Y","Y","Visit 6","6","2016-04-20","336","Serum","Aminotransferase, alanine (ALT) (pkat/L)","","0","0.58"
"01-001","01","Site 01","30","F","Other/Mixed","Placebo","2015-05-21","Y","2015-07-17","58","2016-05-09","355","Y","Y","Visit 6","6","2016-04-20","336","Serum","Aminotransferase, aspartate (AST) (pkat/L)","0.439752284109201","0","0.58"
"01-001","01","Site 01","30","F","Other/Mixed","Placebo","2015-05-21","Y","2015-07-17","58","2016-05-09","355","Y","Y","Visit 6","6","2016-04-20","336","Serum","Calcium (mmol/L)","","2.2","2.6"
"01-001","01","Site 01","30","F","Other/Mixed","Placebo","2015-05-21","Y","2015-07-17","58","2016-05-09","355","Y","Y","Visit 6","6","2016-04-20","336","Serum","Chloride (mmol/L)","103.257515681584","98","106"
"01-001","01","Site 01","30","F","Other/Mixed","Placebo","2015-05-21","Y","2015-07-17","58","2016-05-09","355","Y","Y","Visit 6","6","2016-04-20","336","Serum","Creatinine (µmol/L)","58.2709758972863","61.9","115"
"01-001","01","Site 01","30","F","Other/Mixed","Placebo","2015-05-21","Y","2015-07-17","58","2016-05-09","355","Y","Y","Visit 6","6","2016-04-20","336","Serum","Direct Bilirubin (µmol/L)","0","0","5.1"
"01-001","01","Site 01","30","F","Other/Mixed","Placebo","2015-05-21","Y","2015-07-17","58","2016-05-09","355","Y","Y","Visit 6","6","2016-04-20","336","Serum","IgE (mg/L)","0.0956289987752529","0.1","0.4"
"01-001","01","Site 01","30","F","Other/Mixed","Placebo","2015-05-21","Y","2015-07-17","58","2016-05-09","355","Y","Y","Visit 6","6","2016-04-20","336","Serum","Magnesium (mmol/L)","","0.62","0.99"
"01-001","01","Site 01","30","F","Other/Mixed","Placebo","2015-05-21","Y","2015-07-17","58","2016-05-09","355","Y","Y","Visit 6","6","2016-04-20","336","Serum","Potassium (mmol/L)","5.077054587426","3.5","5"
"01-001","01","Site 01","30","F","Other/Mixed","Placebo","2015-05-21","Y","2015-07-17","58","2016-05-09","355","Y","Y","Visit 6","6","2016-04-20","336","Serum","Sodium (mmol/L)","142.14150799043","136","145"
"01-001","01","Site 01","30","F","Other/Mixed","Placebo","2015-05-21","Y","2015-07-17","58","2016-05-09","355","Y","Y","Visit 6","6","2016-04-20","336","Serum","Total Bilirubin (µmol/L)","17.9652781455167","5.1","20.5"
"01-001","01","Site 01","30","F","Other/Mixed","Placebo","2015-05-21","Y","2015-07-17","58","2016-05-09","355","Y","Y","End of Study","7","2016-05-09","355","Blood","Platelet count (x 109/L)","198.819684812459","150","350"
"01-001","01","Site 01","30","F","Other/Mixed","Placebo","2015-05-21","Y","2015-07-17","58","2016-05-09","355","Y","Y","End of Study","7","2016-05-09","355","Blood","RBC count (x 1012 cells/L)","4.75414340755143","4.2","5.9"
"01-001","01","Site 01","30","F","Other/Mixed","Placebo","2015-05-21","Y","2015-07-17","58","2016-05-09","355","Y","Y","End of Study","7","2016-05-09","355","Blood","WBC count (x 109 cells/L)","12.5671744744081","4.5","11"
"01-001","01","Site 01","30","F","Other/Mixed","Placebo","2015-05-21","Y","2015-07-17","58","2016-05-09","355","Y","Y","End of Study","7","2016-05-09","355","Serum","Albumin (g/L)","42.9436932590303","35","55"
"01-001","01","Site 01","30","F","Other/Mixed","Placebo","2015-05-21","Y","2015-07-17","58","2016-05-09","355","Y","Y","End of Study","7","2016-05-09","355","Serum","Alkaline phosphatase (ALP) (µkat/L)","0.85585431420007","0.5","1.5"
"01-001","01","Site 01","30","F","Other/Mixed","Placebo","2015-05-21","Y","2015-07-17","58","2016-05-09","355","Y","Y","End of Study","7","2016-05-09","355","Serum","Aminotransferase, alanine (ALT) (pkat/L)","","0","0.58"
"01-001","01","Site 01","30","F","Other/Mixed","Placebo","2015-05-21","Y","2015-07-17","58","2016-05-09","355","Y","Y","End of Study","7","2016-05-09","355","Serum","Aminotransferase, aspartate (AST) (pkat/L)","0.549106276745448","0","0.58"
"01-001","01","Site 01","30","F","Other/Mixed","Placebo","2015-05-21","Y","2015-07-17","58","2016-05-09","355","Y","Y","End of Study","7","2016-05-09","355","Serum","Calcium (mmol/L)","2.34241142800136","2.2","2.6"
"01-001","01","Site 01","30","F","Other/Mixed","Placebo","2015-05-21","Y","2015-07-17","58","2016-05-09","355","Y","Y","End of Study","7","2016-05-09","355","Serum","Chloride (mmol/L)","","98","106"
"01-001","01","Site 01","30","F","Other/Mixed","Placebo","2015-05-21","Y","2015-07-17","58","2016-05-09","355","Y","Y","End of Study","7","2016-05-09","355","Serum","Creatinine (µmol/L)","123.041971828692","61.9","115"
"01-001","01","Site 01","30","F","Other/Mixed","Placebo","2015-05-21","Y","2015-07-17","58","2016-05-09","355","Y","Y","End of Study","7","2016-05-09","355","Serum","Direct Bilirubin (µmol/L)","","0","5.1"
"01-001","01","Site 01","30","F","Other/Mixed","Placebo","2015-05-21","Y","2015-07-17","58","2016-05-09","355","Y","Y","End of Study","7","2016-05-09","355","Serum","IgE (mg/L)","0.182903226687268","0.1","0.4"
"01-001","01","Site 01","30","F","Other/Mixed","Placebo","2015-05-21","Y","2015-07-17","58","2016-05-09","355","Y","Y","End of Study","7","2016-05-09","355","Serum","Magnesium (mmol/L)","0.843764090612162","0.62","0.99"
"01-001","01","Site 01","30","F","Other/Mixed","Placebo","2015-05-21","Y","2015-07-17","58","2016-05-09","355","Y","Y","End of Study","7","2016-05-09","355","Serum","Potassium (mmol/L)","3.57078348460485","3.5","5"
"01-001","01","Site 01","30","F","Other/Mixed","Placebo","2015-05-21","Y","2015-07-17","58","2016-05-09","355","Y","Y","End of Study","7","2016-05-09","355","Serum","Sodium (mmol/L)","134.579467261","136","145"
"01-001","01","Site 01","30","F","Other/Mixed","Placebo","2015-05-21","Y","2015-07-17","58","2016-05-09","355","Y","Y","End of Study","7","2016-05-09","355","Serum","Total Bilirubin (µmol/L)","","5.1","20.5"
"01-002","01","Site 01","24","F","Black","Treatment A","2015-05-30","Y","2015-07-29","61","2016-05-29","366","Y","N","Screening","0","2015-05-30","1","Blood","Platelet count (x 109/L)","203.216996149477","150","350"
"01-002","01","Site 01","24","F","Black","Treatment A","2015-05-30","Y","2015-07-29","61","2016-05-29","366","Y","N","Screening","0","2015-05-30","1","Blood","RBC count (x 1012 cells/L)","4.59352235232271","4.2","5.9"
"01-002","01","Site 01","24","F","Black","Treatment A","2015-05-30","Y","2015-07-29","61","2016-05-29","366","Y","N","Screening","0","2015-05-30","1","Blood","WBC count (x 109 cells/L)","4.11268990111011","4.5","11"
"01-002","01","Site 01","24","F","Black","Treatment A","2015-05-30","Y","2015-07-29","61","2016-05-29","366","Y","N","Screening","0","2015-05-30","1","Serum","Albumin (g/L)","35.9123870157723","35","55"
"01-002","01","Site 01","24","F","Black","Treatment A","2015-05-30","Y","2015-07-29","61","2016-05-29","366","Y","N","Screening","0","2015-05-30","1","Serum","Alkaline phosphatase (ALP) (µkat/L)","","0.5","1.5"
"01-002","01","Site 01","24","F","Black","Treatment A","2015-05-30","Y","2015-07-29","61","2016-05-29","366","Y","N","Screening","0","2015-05-30","1","Serum","Aminotransferase, alanine (ALT) (pkat/L)","0.2308989577144","0","0.58"
"01-002","01","Site 01","24","F","Black","Treatment A","2015-05-30","Y","2015-07-29","61","2016-05-29","366","Y","N","Screening","0","2015-05-30","1","Serum","Aminotransferase, aspartate (AST) (pkat/L)","0","0","0.58"
"01-002","01","Site 01","24","F","Black","Treatment A","2015-05-30","Y","2015-07-29","61","2016-05-29","366","Y","N","Screening","0","2015-05-30","1","Serum","Calcium (mmol/L)","2.22115868407144","2.2","2.6"
"01-002","01","Site 01","24","F","Black","Treatment A","2015-05-30","Y","2015-07-29","61","2016-05-29","366","Y","N","Screening","0","2015-05-30","1","Serum","Chloride (mmol/L)","","98","106"
"01-002","01","Site 01","24","F","Black","Treatment A","2015-05-30","Y","2015-07-29","61","2016-05-29","366","Y","N","Screening","0","2015-05-30","1","Serum","Creatinine (µmol/L)","62.3520944744999","61.9","115"
"01-002","01","Site 01","24","F","Black","Treatment A","2015-05-30","Y","2015-07-29","61","2016-05-29","366","Y","N","Screening","0","2015-05-30","1","Serum","Direct Bilirubin (µmol/L)","1.1916257550896","0","5.1"
"01-002","01","Site 01","24","F","Black","Treatment A","2015-05-30","Y","2015-07-29","61","2016-05-29","366","Y","N","Screening","0","2015-05-30","1","Serum","IgE (mg/L)","0.27329416172081","0.1","0.4"
"01-002","01","Site 01","24","F","Black","Treatment A","2015-05-30","Y","2015-07-29","61","2016-05-29","366","Y","N","Screening","0","2015-05-30","1","Serum","Magnesium (mmol/L)","0.479238168294069","0.62","0.99"
"01-002","01","Site 01","24","F","Black","Treatment A","2015-05-30","Y","2015-07-29","61","2016-05-29","366","Y","N","Screening","0","2015-05-30","1","Serum","Potassium (mmol/L)","3.86861349725075","3.5","5"
"01-002","01","Site 01","24","F","Black","Treatment A","2015-05-30","Y","2015-07-29","61","2016-05-29","366","Y","N","Screening","0","2015-05-30","1","Serum","Sodium (mmol/L)","149.545060510219","136","145"
"01-002","01","Site 01","24","F","Black","Treatment A","2015-05-30","Y","2015-07-29","61","2016-05-29","366","Y","N","Screening","0","2015-05-30","1","Serum","Total Bilirubin (µmol/L)","29.5090659006079","5.1","20.5"
"01-002","01","Site 01","24","F","Black","Treatment A","2015-05-30","Y","2015-07-29","61","2016-05-29","366","Y","N","Visit 1","1","2015-07-29","61","Blood","Platelet count (x 109/L)","463.243139180733","150","350"
"01-002","01","Site 01","24","F","Black","Treatment A","2015-05-30","Y","2015-07-29","61","2016-05-29","366","Y","N","Visit 1","1","2015-07-29","61","Blood","RBC count (x 1012 cells/L)","6.23010335043089","4.2","5.9"
"01-002","01","Site 01","24","F","Black","Treatment A","2015-05-30","Y","2015-07-29","61","2016-05-29","366","Y","N","Visit 1","1","2015-07-29","61","Blood","WBC count (x 109 cells/L)","2.62697864606129","4.5","11"
"01-002","01","Site 01","24","F","Black","Treatment A","2015-05-30","Y","2015-07-29","61","2016-05-29","366","Y","N","Visit 1","1","2015-07-29","61","Serum","Albumin (g/L)","59.2336415220535","35","55"
"01-002","01","Site 01","24","F","Black","Treatment A","2015-05-30","Y","2015-07-29","61","2016-05-29","366","Y","N","Visit 1","1","2015-07-29","61","Serum","Alkaline phosphatase (ALP) (µkat/L)","0.683324275546981","0.5","1.5"
"01-002","01","Site 01","24","F","Black","Treatment A","2015-05-30","Y","2015-07-29","61","2016-05-29","366","Y","N","Visit 1","1","2015-07-29","61","Serum","Aminotransferase, alanine (ALT) (pkat/L)","0.615933487430712","0","0.58"
"01-002","01","Site 01","24","F","Black","Treatment A","2015-05-30","Y","2015-07-29","61","2016-05-29","366","Y","N","Visit 1","1","2015-07-29","61","Serum","Aminotransferase, aspartate (AST) (pkat/L)","0.376151129378731","0","0.58"
"01-002","01","Site 01","24","F","Black","Treatment A","2015-05-30","Y","2015-07-29","61","2016-05-29","366","Y","N","Visit 1","1","2015-07-29","61","Serum","Calcium (mmol/L)","2.28071994611498","2.2","2.6"
"01-002","01","Site 01","24","F","Black","Treatment A","2015-05-30","Y","2015-07-29","61","2016-05-29","366","Y","N","Visit 1","1","2015-07-29","61","Serum","Chloride (mmol/L)","","98","106"
"01-002","01","Site 01","24","F","Black","Treatment A","2015-05-30","Y","2015-07-29","61","2016-05-29","366","Y","N","Visit 1","1","2015-07-29","61","Serum","Creatinine (µmol/L)","122.149152234623","61.9","115"
"01-002","01","Site 01","24","F","Black","Treatment A","2015-05-30","Y","2015-07-29","61","2016-05-29","366","Y","N","Visit 1","1","2015-07-29","61","Serum","Direct Bilirubin (µmol/L)","3.01321786346743","0","5.1"
"01-002","01","Site 01","24","F","Black","Treatment A","2015-05-30","Y","2015-07-29","61","2016-05-29","366","Y","N","Visit 1","1","2015-07-29","61","Serum","IgE (mg/L)","0.28474560397982","0.1","0.4"
"01-002","01","Site 01","24","F","Black","Treatment A","2015-05-30","Y","2015-07-29","61","2016-05-29","366","Y","N","Visit 1","1","2015-07-29","61","Serum","Magnesium (mmol/L)","0.690481055236582","0.62","0.99"
"01-002","01","Site 01","24","F","Black","Treatment A","2015-05-30","Y","2015-07-29","61","2016-05-29","366","Y","N","Visit 1","1","2015-07-29","61","Serum","Potassium (mmol/L)","4.68120215232467","3.5","5"
"01-002","01","Site 01","24","F","Black","Treatment A","2015-05-30","Y","2015-07-29","61","2016-05-29","366","Y","N","Visit 1","1","2015-07-29","61","Serum","Sodium (mmol/L)","138.870342350005","136","145"
"01-002","01","Site 01","24","F","Black","Treatment A","2015-05-30","Y","2015-07-29","61","2016-05-29","366","Y","N","Visit 1","1","2015-07-29","61","Serum","Total Bilirubin (µmol/L)","18.4440590026213","5.1","20.5"
"01-002","01","Site 01","24","F","Black","Treatment A","2015-05-30","Y","2015-07-29","61","2016-05-29","366","Y","N","Unscheduled 1.1","1.1","2015-08-06","69","Blood","Platelet count (x 109/L)","131.317651074618","150","350"
"01-002","01","Site 01","24","F","Black","Treatment A","2015-05-30","Y","2015-07-29","61","2016-05-29","366","Y","N","Unscheduled 1.1","1.1","2015-08-06","69","Blood","RBC count (x 1012 cells/L)","4.8781942421691","4.2","5.9"
"01-002","01","Site 01","24","F","Black","Treatment A","2015-05-30","Y","2015-07-29","61","2016-05-29","366","Y","N","Unscheduled 1.1","1.1","2015-08-06","69","Blood","WBC count (x 109 cells/L)","8.67922302951748","4.5","11"
"01-002","01","Site 01","24","F","Black","Treatment A","2015-05-30","Y","2015-07-29","61","2016-05-29","366","Y","N","Unscheduled 1.1","1.1","2015-08-06","69","Serum","Albumin (g/L)","32.182723900946","35","55"
"01-002","01","Site 01","24","F","Black","Treatment A","2015-05-30","Y","2015-07-29","61","2016-05-29","366","Y","N","Unscheduled 1.1","1.1","2015-08-06","69","Serum","Alkaline phosphatase (ALP) (µkat/L)","0.301711246670373","0.5","1.5"
"01-002","01","Site 01","24","F","Black","Treatment A","2015-05-30","Y","2015-07-29","61","2016-05-29","366","Y","N","Unscheduled 1.1","1.1","2015-08-06","69","Serum","Aminotransferase, alanine (ALT) (pkat/L)","0.0410093243679377","0","0.58"
"01-002","01","Site 01","24","F","Black","Treatment A","2015-05-30","Y","2015-07-29","61","2016-05-29","366","Y","N","Unscheduled 1.1","1.1","2015-08-06","69","Serum","Aminotransferase, aspartate (AST) (pkat/L)","0.173110072533774","0","0.58"
"01-002","01","Site 01","24","F","Black","Treatment A","2015-05-30","Y","2015-07-29","61","2016-05-29","366","Y","N","Unscheduled 1.1","1.1","2015-08-06","69","Serum","Calcium (mmol/L)","2.60448522199657","2.2","2.6"
"01-002","01","Site 01","24","F","Black","Treatment A","2015-05-30","Y","2015-07-29","61","2016-05-29","366","Y","N","Unscheduled 1.1","1.1","2015-08-06","69","Serum","Chloride (mmol/L)","98.7081266055703","98","106"
"01-002","01","Site 01","24","F","Black","Treatment A","2015-05-30","Y","2015-07-29","61","2016-05-29","366","Y","N","Unscheduled 1.1","1.1","2015-08-06","69","Serum","Creatinine (µmol/L)","47.2938570501292","61.9","115"
"01-002","01","Site 01","24","F","Black","Treatment A","2015-05-30","Y","2015-07-29","61","2016-05-29","366","Y","N","Unscheduled 1.1","1.1","2015-08-06","69","Serum","Direct Bilirubin (µmol/L)","0.514301627396305","0","5.1"
"01-002","01","Site 01","24","F","Black","Treatment A","2015-05-30","Y","2015-07-29","61","2016-05-29","366","Y","N","Unscheduled 1.1","1.1","2015-08-06","69","Serum","IgE (mg/L)","0.27052608467864","0.1","0.4"
"01-002","01","Site 01","24","F","Black","Treatment A","2015-05-30","Y","2015-07-29","61","2016-05-29","366","Y","N","Unscheduled 1.1","1.1","2015-08-06","69","Serum","Magnesium (mmol/L)","0.628459221359288","0.62","0.99"
"01-002","01","Site 01","24","F","Black","Treatment A","2015-05-30","Y","2015-07-29","61","2016-05-29","366","Y","N","Unscheduled 1.1","1.1","2015-08-06","69","Serum","Potassium (mmol/L)","4.7188451441438","3.5","5"
"01-002","01","Site 01","24","F","Black","Treatment A","2015-05-30","Y","2015-07-29","61","2016-05-29","366","Y","N","Unscheduled 1.1","1.1","2015-08-06","69","Serum","Sodium (mmol/L)","137.571906879448","136","145"
"01-002","01","Site 01","24","F","Black","Treatment A","2015-05-30","Y","2015-07-29","61","2016-05-29","366","Y","N","Unscheduled 1.1","1.1","2015-08-06","69","Serum","Total Bilirubin (µmol/L)","2.25858941294149","5.1","20.5"
"01-002","01","Site 01","24","F","Black","Treatment A","2015-05-30","Y","2015-07-29","61","2016-05-29","366","Y","N","Visit 2","2","2015-09-17","111","Blood","Platelet count (x 109/L)","215.809935074148","150","350"
"01-002","01","Site 01","24","F","Black","Treatment A","2015-05-30","Y","2015-07-29","61","2016-05-29","366","Y","N","Visit 2","2","2015-09-17","111","Blood","RBC count (x 1012 cells/L)","5.71675318769101","4.2","5.9"
"01-002","01","Site 01","24","F","Black","Treatment A","2015-05-30","Y","2015-07-29","61","2016-05-29","366","Y","N","Visit 2","2","2015-09-17","111","Blood","WBC count (x 109 cells/L)","","4.5","11"
"01-002","01","Site 01","24","F","Black","Treatment A","2015-05-30","Y","2015-07-29","61","2016-05-29","366","Y","N","Visit 2","2","2015-09-17","111","Serum","Albumin (g/L)","51.288330741507","35","55"
"01-002","01","Site 01","24","F","Black","Treatment A","2015-05-30","Y","2015-07-29","61","2016-05-29","366","Y","N","Visit 2","2","2015-09-17","111","Serum","Alkaline phosphatase (ALP) (µkat/L)","1.93818836375163","0.5","1.5"
"01-002","01","Site 01","24","F","Black","Treatment A","2015-05-30","Y","2015-07-29","61","2016-05-29","366","Y","N","Visit 2","2","2015-09-17","111","Serum","Aminotransferase, alanine (ALT) (pkat/L)","0.288614746258522","0","0.58"
"01-002","01","Site 01","24","F","Black","Treatment A","2015-05-30","Y","2015-07-29","61","2016-05-29","366","Y","N","Visit 2","2","2015-09-17","111","Serum","Aminotransferase, aspartate (AST) (pkat/L)","0.44490206037002","0","0.58"
"01-002","01","Site 01","24","F","Black","Treatment A","2015-05-30","Y","2015-07-29","61","2016-05-29","366","Y","N","Visit 2","2","2015-09-17","111","Serum","Calcium (mmol/L)","2.39555745630877","2.2","2.6"
"01-002","01","Site 01","24","F","Black","Treatment A","2015-05-30","Y","2015-07-29","61","2016-05-29","366","Y","N","Visit 2","2","2015-09-17","111","Serum","Chloride (mmol/L)","97.3303330110206","98","106"
"01-002","01","Site 01","24","F","Black","Treatment A","2015-05-30","Y","2015-07-29","61","2016-05-29","366","Y","N","Visit 2","2","2015-09-17","111","Serum","Creatinine (µmol/L)","68.5537474972545","61.9","115"
"01-002","01","Site 01","24","F","Black","Treatment A","2015-05-30","Y","2015-07-29","61","2016-05-29","366","Y","N","Visit 2","2","2015-09-17","111","Serum","Direct Bilirubin (µmol/L)","4.23132998455481","0","5.1"
"01-002","01","Site 01","24","F","Black","Treatment A","2015-05-30","Y","2015-07-29","61","2016-05-29","366","Y","N","Visit 2","2","2015-09-17","111","Serum","IgE (mg/L)","0.308732407624202","0.1","0.4"
"01-002","01","Site 01","24","F","Black","Treatment A","2015-05-30","Y","2015-07-29","61","2016-05-29","366","Y","N","Visit 2","2","2015-09-17","111","Serum","Magnesium (mmol/L)","0.898540764131125","0.62","0.99"
"01-002","01","Site 01","24","F","Black","Treatment A","2015-05-30","Y","2015-07-29","61","2016-05-29","366","Y","N","Visit 2","2","2015-09-17","111","Serum","Potassium (mmol/L)","5.26015011997845","3.5","5"
"01-002","01","Site 01","24","F","Black","Treatment A","2015-05-30","Y","2015-07-29","61","2016-05-29","366","Y","N","Visit 2","2","2015-09-17","111","Serum","Sodium (mmol/L)","139.293475687638","136","145"
"01-002","01","Site 01","24","F","Black","Treatment A","2015-05-30","Y","2015-07-29","61","2016-05-29","366","Y","N","Visit 2","2","2015-09-17","111","Serum","Total Bilirubin (µmol/L)","7.60386737165412","5.1","20.5"
"01-002","01","Site 01","24","F","Black","Treatment A","2015-05-30","Y","2015-07-29","61","2016-05-29","366","Y","N","Visit 3","3","2015-11-15","170","Blood","Platelet count (x 109/L)","241.041343131549","150","350"
"01-002","01","Site 01","24","F","Black","Treatment A","2015-05-30","Y","2015-07-29","61","2016-05-29","366","Y","N","Visit 3","3","2015-11-15","170","Blood","RBC count (x 1012 cells/L)","4.61716081717901","4.2","5.9"
"01-002","01","Site 01","24","F","Black","Treatment A","2015-05-30","Y","2015-07-29","61","2016-05-29","366","Y","N","Visit 3","3","2015-11-15","170","Blood","WBC count (x 109 cells/L)","9.90369352430777","4.5","11"
"01-002","01","Site 01","24","F","Black","Treatment A","2015-05-30","Y","2015-07-29","61","2016-05-29","366","Y","N","Visit 3","3","2015-11-15","170","Serum","Albumin (g/L)","33.484548003058","35","55"
"01-002","01","Site 01","24","F","Black","Treatment A","2015-05-30","Y","2015-07-29","61","2016-05-29","366","Y","N","Visit 3","3","2015-11-15","170","Serum","Alkaline phosphatase (ALP) (µkat/L)","1.3057936678018","0.5","1.5"
"01-002","01","Site 01","24","F","Black","Treatment A","2015-05-30","Y","2015-07-29","61","2016-05-29","366","Y","N","Visit 3","3","2015-11-15","170","Serum","Aminotransferase, alanine (ALT) (pkat/L)","0.163880159779162","0","0.58"
"01-002","01","Site 01","24","F","Black","Treatment A","2015-05-30","Y","2015-07-29","61","2016-05-29","366","Y","N","Visit 3","3","2015-11-15","170","Serum","Aminotransferase, aspartate (AST) (pkat/L)","0.665111793018047","0","0.58"
"01-002","01","Site 01","24","F","Black","Treatment A","2015-05-30","Y","2015-07-29","61","2016-05-29","366","Y","N","Visit 3","3","2015-11-15","170","Serum","Calcium (mmol/L)","2.50848163435123","2.2","2.6"
"01-002","01","Site 01","24","F","Black","Treatment A","2015-05-30","Y","2015-07-29","61","2016-05-29","366","Y","N","Visit 3","3","2015-11-15","170","Serum","Chloride (mmol/L)","98.837226992523","98","106"
"01-002","01","Site 01","24","F","Black","Treatment A","2015-05-30","Y","2015-07-29","61","2016-05-29","366","Y","N","Visit 3","3","2015-11-15","170","Serum","Creatinine (µmol/L)","50.3842169959582","61.9","115"
"01-002","01","Site 01","24","F","Black","Treatment A","2015-05-30","Y","2015-07-29","61","2016-05-29","366","Y","N","Visit 3","3","2015-11-15","170","Serum","Direct Bilirubin (µmol/L)","4.54244287125978","0","5.1"
"01-002","01","Site 01","24","F","Black","Treatment A","2015-05-30","Y","2015-07-29","61","2016-05-29","366","Y","N","Visit 3","3","2015-11-15","170","Serum","IgE (mg/L)","0.182069914982695","0.1","0.4"
"01-002","01","Site 01","24","F","Black","Treatment A","2015-05-30","Y","2015-07-29","61","2016-05-29","366","Y","N","Visit 3","3","2015-11-15","170","Serum","Magnesium (mmol/L)","0.610819066624471","0.62","0.99"
"01-002","01","Site 01","24","F","Black","Treatment A","2015-05-30","Y","2015-07-29","61","2016-05-29","366","Y","N","Visit 3","3","2015-11-15","170","Serum","Potassium (mmol/L)","3.10483320546895","3.5","5"
"01-002","01","Site 01","24","F","Black","Treatment A","2015-05-30","Y","2015-07-29","61","2016-05-29","366","Y","N","Visit 3","3","2015-11-15","170","Serum","Sodium (mmol/L)","","136","145"
"01-002","01","Site 01","24","F","Black","Treatment A","2015-05-30","Y","2015-07-29","61","2016-05-29","366","Y","N","Visit 3","3","2015-11-15","170","Serum","Total Bilirubin (µmol/L)","8.8313994329137","5.1","20.5"
"01-002","01","Site 01","24","F","Black","Treatment A","2015-05-30","Y","2015-07-29","61","2016-05-29","366","Y","N","Visit 4","4","2016-01-06","222","Blood","Platelet count (x 109/L)","319.600361413117","150","350"
"01-002","01","Site 01","24","F","Black","Treatment A","2015-05-30","Y","2015-07-29","61","2016-05-29","366","Y","N","Visit 4","4","2016-01-06","222","Blood","RBC count (x 1012 cells/L)","4.78392929562098","4.2","5.9"
"01-002","01","Site 01","24","F","Black","Treatment A","2015-05-30","Y","2015-07-29","61","2016-05-29","366","Y","N","Visit 4","4","2016-01-06","222","Blood","WBC count (x 109 cells/L)","0","4.5","11"
"01-002","01","Site 01","24","F","Black","Treatment A","2015-05-30","Y","2015-07-29","61","2016-05-29","366","Y","N","Visit 4","4","2016-01-06","222","Serum","Albumin (g/L)","59.445986202009","35","55"
"01-002","01","Site 01","24","F","Black","Treatment A","2015-05-30","Y","2015-07-29","61","2016-05-29","366","Y","N","Visit 4","4","2016-01-06","222","Serum","Alkaline phosphatase (ALP) (µkat/L)","1.43347279955199","0.5","1.5"
"01-002","01","Site 01","24","F","Black","Treatment A","2015-05-30","Y","2015-07-29","61","2016-05-29","366","Y","N","Visit 4","4","2016-01-06","222","Serum","Aminotransferase, alanine (ALT) (pkat/L)","0","0","0.58"
"01-002","01","Site 01","24","F","Black","Treatment A","2015-05-30","Y","2015-07-29","61","2016-05-29","366","Y","N","Visit 4","4","2016-01-06","222","Serum","Aminotransferase, aspartate (AST) (pkat/L)","0.173922571457441","0","0.58"
"01-002","01","Site 01","24","F","Black","Treatment A","2015-05-30","Y","2015-07-29","61","2016-05-29","366","Y","N","Visit 4","4","2016-01-06","222","Serum","Calcium (mmol/L)","1.99085442099071","2.2","2.6"
"01-002","01","Site 01","24","F","Black","Treatment A","2015-05-30","Y","2015-07-29","61","2016-05-29","366","Y","N","Visit 4","4","2016-01-06","222","Serum","Chloride (mmol/L)","100.567085485914","98","106"
"01-002","01","Site 01","24","F","Black","Treatment A","2015-05-30","Y","2015-07-29","61","2016-05-29","366","Y","N","Visit 4","4","2016-01-06","222","Serum","Creatinine (µmol/L)","89.6771564218253","61.9","115"
"01-002","01","Site 01","24","F","Black","Treatment A","2015-05-30","Y","2015-07-29","61","2016-05-29","366","Y","N","Visit 4","4","2016-01-06","222","Serum","Direct Bilirubin (µmol/L)","3.02274824291664","0","5.1"
"01-002","01","Site 01","24","F","Black","Treatment A","2015-05-30","Y","2015-07-29","61","2016-05-29","366","Y","N","Visit 4","4","2016-01-06","222","Serum","IgE (mg/L)","0.121838117067559","0.1","0.4"
"01-002","01","Site 01","24","F","Black","Treatment A","2015-05-30","Y","2015-07-29","61","2016-05-29","366","Y","N","Visit 4","4","2016-01-06","222","Serum","Magnesium (mmol/L)","1.21776613696695","0.62","0.99"
"01-002","01","Site 01","24","F","Black","Treatment A","2015-05-30","Y","2015-07-29","61","2016-05-29","366","Y","N","Visit 4","4","2016-01-06","222","Serum","Potassium (mmol/L)","3.17740091725431","3.5","5"
"01-002","01","Site 01","24","F","Black","Treatment A","2015-05-30","Y","2015-07-29","61","2016-05-29","366","Y","N","Visit 4","4","2016-01-06","222","Serum","Sodium (mmol/L)","136.786326012818","136","145"
"01-002","01","Site 01","24","F","Black","Treatment A","2015-05-30","Y","2015-07-29","61","2016-05-29","366","Y","N","Visit 4","4","2016-01-06","222","Serum","Total Bilirubin (µmol/L)","","5.1","20.5"
"01-002","01","Site 01","24","F","Black","Treatment A","2015-05-30","Y","2015-07-29","61","2016-05-29","366","Y","N","Visit 5","5","2016-03-05","281","Blood","Platelet count (x 109/L)","354.247820157918","150","350"
"01-002","01","Site 01","24","F","Black","Treatment A","2015-05-30","Y","2015-07-29","61","2016-05-29","366","Y","N","Visit 5","5","2016-03-05","281","Blood","RBC count (x 1012 cells/L)","3.27582360979421","4.2","5.9"
"01-002","01","Site 01","24","F","Black","Treatment A","2015-05-30","Y","2015-07-29","61","2016-05-29","366","Y","N","Visit 5","5","2016-03-05","281","Blood","WBC count (x 109 cells/L)","","4.5","11"
"01-002","01","Site 01","24","F","Black","Treatment A","2015-05-30","Y","2015-07-29","61","2016-05-29","366","Y","N","Visit 5","5","2016-03-05","281","Serum","Albumin (g/L)","50.3015988719217","35","55"
"01-002","01","Site 01","24","F","Black","Treatment A","2015-05-30","Y","2015-07-29","61","2016-05-29","366","Y","N","Visit 5","5","2016-03-05","281","Serum","Alkaline phosphatase (ALP) (µkat/L)","0.971159800063998","0.5","1.5"
"01-002","01","Site 01","24","F","Black","Treatment A","2015-05-30","Y","2015-07-29","61","2016-05-29","366","Y","N","Visit 5","5","2016-03-05","281","Serum","Aminotransferase, alanine (ALT) (pkat/L)","0.509856817463958","0","0.58"
"01-002","01","Site 01","24","F","Black","Treatment A","2015-05-30","Y","2015-07-29","61","2016-05-29","366","Y","N","Visit 5","5","2016-03-05","281","Serum","Aminotransferase, aspartate (AST) (pkat/L)","0","0","0.58"
"01-002","01","Site 01","24","F","Black","Treatment A","2015-05-30","Y","2015-07-29","61","2016-05-29","366","Y","N","Visit 5","5","2016-03-05","281","Serum","Calcium (mmol/L)","2.49376661809342","2.2","2.6"
"01-002","01","Site 01","24","F","Black","Treatment A","2015-05-30","Y","2015-07-29","61","2016-05-29","366","Y","N","Visit 5","5","2016-03-05","281","Serum","Chloride (mmol/L)","105.967905323298","98","106"
"01-002","01","Site 01","24","F","Black","Treatment A","2015-05-30","Y","2015-07-29","61","2016-05-29","366","Y","N","Visit 5","5","2016-03-05","281","Serum","Creatinine (µmol/L)","95.4958200363633","61.9","115"
"01-002","01","Site 01","24","F","Black","Treatment A","2015-05-30","Y","2015-07-29","61","2016-05-29","366","Y","N","Visit 5","5","2016-03-05","281","Serum","Direct Bilirubin (µmol/L)","4.73637044338579","0","5.1"
"01-002","01","Site 01","24","F","Black","Treatment A","2015-05-30","Y","2015-07-29","61","2016-05-29","366","Y","N","Visit 5","5","2016-03-05","281","Serum","IgE (mg/L)","0.298985538635615","0.1","0.4"
"01-002","01","Site 01","24","F","Black","Treatment A","2015-05-30","Y","2015-07-29","61","2016-05-29","366","Y","N","Visit 5","5","2016-03-05","281","Serum","Magnesium (mmol/L)","0.411084480212765","0.62","0.99"
"01-002","01","Site 01","24","F","Black","Treatment A","2015-05-30","Y","2015-07-29","61","2016-05-29","366","Y","N","Visit 5","5","2016-03-05","281","Serum","Potassium (mmol/L)","","3.5","5"
"01-002","01","Site 01","24","F","Black","Treatment A","2015-05-30","Y","2015-07-29","61","2016-05-29","366","Y","N","Visit 5","5","2016-03-05","281","Serum","Sodium (mmol/L)","147.515669434898","136","145"
"01-002","01","Site 01","24","F","Black","Treatment A","2015-05-30","Y","2015-07-29","61","2016-05-29","366","Y","N","Visit 5","5","2016-03-05","281","Serum","Total Bilirubin (µmol/L)","31.1150716495391","5.1","20.5"
"01-002","01","Site 01","24","F","Black","Treatment A","2015-05-30","Y","2015-07-29","61","2016-05-29","366","Y","N","Visit 6","6","2016-04-26","333","Blood","Platelet count (x 109/L)","324.122833499555","150","350"
"01-002","01","Site 01","24","F","Black","Treatment A","2015-05-30","Y","2015-07-29","61","2016-05-29","366","Y","N","Visit 6","6","2016-04-26","333","Blood","RBC count (x 1012 cells/L)","","4.2","5.9"
"01-002","01","Site 01","24","F","Black","Treatment A","2015-05-30","Y","2015-07-29","61","2016-05-29","366","Y","N","Visit 6","6","2016-04-26","333","Blood","WBC count (x 109 cells/L)","2.53593810231877","4.5","11"
"01-002","01","Site 01","24","F","Black","Treatment A","2015-05-30","Y","2015-07-29","61","2016-05-29","366","Y","N","Visit 6","6","2016-04-26","333","Serum","Albumin (g/L)","52.9620969287605","35","55"
"01-002","01","Site 01","24","F","Black","Treatment A","2015-05-30","Y","2015-07-29","61","2016-05-29","366","Y","N","Visit 6","6","2016-04-26","333","Serum","Alkaline phosphatase (ALP) (µkat/L)","0.218010576469154","0.5","1.5"
"01-002","01","Site 01","24","F","Black","Treatment A","2015-05-30","Y","2015-07-29","61","2016-05-29","366","Y","N","Visit 6","6","2016-04-26","333","Serum","Aminotransferase, alanine (ALT) (pkat/L)","","0","0.58"
"01-002","01","Site 01","24","F","Black","Treatment A","2015-05-30","Y","2015-07-29","61","2016-05-29","366","Y","N","Visit 6","6","2016-04-26","333","Serum","Aminotransferase, aspartate (AST) (pkat/L)","0.201892387574307","0","0.58"
"01-002","01","Site 01","24","F","Black","Treatment A","2015-05-30","Y","2015-07-29","61","2016-05-29","366","Y","N","Visit 6","6","2016-04-26","333","Serum","Calcium (mmol/L)","","2.2","2.6"
"01-002","01","Site 01","24","F","Black","Treatment A","2015-05-30","Y","2015-07-29","61","2016-05-29","366","Y","N","Visit 6","6","2016-04-26","333","Serum","Chloride (mmol/L)","105.431613661498","98","106"
"01-002","01","Site 01","24","F","Black","Treatment A","2015-05-30","Y","2015-07-29","61","2016-05-29","366","Y","N","Visit 6","6","2016-04-26","333","Serum","Creatinine (µmol/L)","78.2830088449328","61.9","115"
"01-002","01","Site 01","24","F","Black","Treatment A","2015-05-30","Y","2015-07-29","61","2016-05-29","366","Y","N","Visit 6","6","2016-04-26","333","Serum","Direct Bilirubin (µmol/L)","0","0","5.1"
"01-002","01","Site 01","24","F","Black","Treatment A","2015-05-30","Y","2015-07-29","61","2016-05-29","366","Y","N","Visit 6","6","2016-04-26","333","Serum","IgE (mg/L)","0.347912271386179","0.1","0.4"
"01-002","01","Site 01","24","F","Black","Treatment A","2015-05-30","Y","2015-07-29","61","2016-05-29","366","Y","N","Visit 6","6","2016-04-26","333","Serum","Magnesium (mmol/L)","","0.62","0.99"
"01-002","01","Site 01","24","F","Black","Treatment A","2015-05-30","Y","2015-07-29","61","2016-05-29","366","Y","N","Visit 6","6","2016-04-26","333","Serum","Potassium (mmol/L)","6.57499317102939","3.5","5"
"01-002","01","Site 01","24","F","Black","Treatment A","2015-05-30","Y","2015-07-29","61","2016-05-29","366","Y","N","Visit 6","6","2016-04-26","333","Serum","Sodium (mmol/L)","128.055774000299","136","145"
"01-002","01","Site 01","24","F","Black","Treatment A","2015-05-30","Y","2015-07-29","61","2016-05-29","366","Y","N","Visit 6","6","2016-04-26","333","Serum","Total Bilirubin (µmol/L)","8.73230659725205","5.1","20.5"
"01-002","01","Site 01","24","F","Black","Treatment A","2015-05-30","Y","2015-07-29","61","2016-05-29","366","Y","N","Unscheduled 6.1","6.1","2016-05-04","341","Blood","Platelet count (x 109/L)","198.1086092315","150","350"
"01-002","01","Site 01","24","F","Black","Treatment A","2015-05-30","Y","2015-07-29","61","2016-05-29","366","Y","N","Unscheduled 6.1","6.1","2016-05-04","341","Blood","RBC count (x 1012 cells/L)","5.7943745623202","4.2","5.9"
"01-002","01","Site 01","24","F","Black","Treatment A","2015-05-30","Y","2015-07-29","61","2016-05-29","366","Y","N","Unscheduled 6.1","6.1","2016-05-04","341","Blood","WBC count (x 109 cells/L)","8.51041690157831","4.5","11"
"01-002","01","Site 01","24","F","Black","Treatment A","2015-05-30","Y","2015-07-29","61","2016-05-29","366","Y","N","Unscheduled 6.1","6.1","2016-05-04","341","Serum","Albumin (g/L)","44.1021865654291","35","55"
"01-002","01","Site 01","24","F","Black","Treatment A","2015-05-30","Y","2015-07-29","61","2016-05-29","366","Y","N","Unscheduled 6.1","6.1","2016-05-04","341","Serum","Alkaline phosphatase (ALP) (µkat/L)","1.52797973115826","0.5","1.5"
"01-002","01","Site 01","24","F","Black","Treatment A","2015-05-30","Y","2015-07-29","61","2016-05-29","366","Y","N","Unscheduled 6.1","6.1","2016-05-04","341","Serum","Aminotransferase, alanine (ALT) (pkat/L)","0.00387592988997904","0","0.58"
"01-002","01","Site 01","24","F","Black","Treatment A","2015-05-30","Y","2015-07-29","61","2016-05-29","366","Y","N","Unscheduled 6.1","6.1","2016-05-04","341","Serum","Aminotransferase, aspartate (AST) (pkat/L)","0.500303705965232","0","0.58"
"01-002","01","Site 01","24","F","Black","Treatment A","2015-05-30","Y","2015-07-29","61","2016-05-29","366","Y","N","Unscheduled 6.1","6.1","2016-05-04","341","Serum","Calcium (mmol/L)","2.518926492415","2.2","2.6"
"01-002","01","Site 01","24","F","Black","Treatment A","2015-05-30","Y","2015-07-29","61","2016-05-29","366","Y","N","Unscheduled 6.1","6.1","2016-05-04","341","Serum","Chloride (mmol/L)","104.931863916327","98","106"
"01-002","01","Site 01","24","F","Black","Treatment A","2015-05-30","Y","2015-07-29","61","2016-05-29","366","Y","N","Unscheduled 6.1","6.1","2016-05-04","341","Serum","Creatinine (µmol/L)","77.1929766579195","61.9","115"
"01-002","01","Site 01","24","F","Black","Treatment A","2015-05-30","Y","2015-07-29","61","2016-05-29","366","Y","N","Unscheduled 6.1","6.1","2016-05-04","341","Serum","Direct Bilirubin (µmol/L)","2.72925018460332","0","5.1"
"01-002","01","Site 01","24","F","Black","Treatment A","2015-05-30","Y","2015-07-29","61","2016-05-29","366","Y","N","Unscheduled 6.1","6.1","2016-05-04","341","Serum","IgE (mg/L)","0.117412432346292","0.1","0.4"
"01-002","01","Site 01","24","F","Black","Treatment A","2015-05-30","Y","2015-07-29","61","2016-05-29","366","Y","N","Unscheduled 6.1","6.1","2016-05-04","341","Serum","Magnesium (mmol/L)","1.04137420295043","0.62","0.99"
"01-002","01","Site 01","24","F","Black","Treatment A","2015-05-30","Y","2015-07-29","61","2016-05-29","366","Y","N","Unscheduled 6.1","6.1","2016-05-04","341","Serum","Potassium (mmol/L)","5.00167263426782","3.5","5"
"01-002","01","Site 01","24","F","Black","Treatment A","2015-05-30","Y","2015-07-29","61","2016-05-29","366","Y","N","Unscheduled 6.1","6.1","2016-05-04","341","Serum","Sodium (mmol/L)","140.152505599894","136","145"
"01-002","01","Site 01","24","F","Black","Treatment A","2015-05-30","Y","2015-07-29","61","2016-05-29","366","Y","N","Unscheduled 6.1","6.1","2016-05-04","341","Serum","Total Bilirubin (µmol/L)","8.72843790799224","5.1","20.5"
"01-002","01","Site 01","24","F","Black","Treatment A","2015-05-30","Y","2015-07-29","61","2016-05-29","366","Y","N","End of Study","7","2016-05-29","366","Blood","Platelet count (x 109/L)","497.888996740508","150","350"
"01-002","01","Site 01","24","F","Black","Treatment A","2015-05-30","Y","2015-07-29","61","2016-05-29","366","Y","N","End of Study","7","2016-05-29","366","Blood","RBC count (x 1012 cells/L)","5.08857861683537","4.2","5.9"
"01-002","01","Site 01","24","F","Black","Treatment A","2015-05-30","Y","2015-07-29","61","2016-05-29","366","Y","N","End of Study","7","2016-05-29","366","Blood","WBC count (x 109 cells/L)","0.050571407801959","4.5","11"
"01-002","01","Site 01","24","F","Black","Treatment A","2015-05-30","Y","2015-07-29","61","2016-05-29","366","Y","N","End of Study","7","2016-05-29","366","Serum","Albumin (g/L)","50.0659869396745","35","55"
"01-002","01","Site 01","24","F","Black","Treatment A","2015-05-30","Y","2015-07-29","61","2016-05-29","366","Y","N","End of Study","7","2016-05-29","366","Serum","Alkaline phosphatase (ALP) (µkat/L)","0.561766186508411","0.5","1.5"
"01-002","01","Site 01","24","F","Black","Treatment A","2015-05-30","Y","2015-07-29","61","2016-05-29","366","Y","N","End of Study","7","2016-05-29","366","Serum","Aminotransferase, alanine (ALT) (pkat/L)","0.060595328667693","0","0.58"
"01-002","01","Site 01","24","F","Black","Treatment A","2015-05-30","Y","2015-07-29","61","2016-05-29","366","Y","N","End of Study","7","2016-05-29","366","Serum","Aminotransferase, aspartate (AST) (pkat/L)","0.010357766383084","0","0.58"
"01-002","01","Site 01","24","F","Black","Treatment A","2015-05-30","Y","2015-07-29","61","2016-05-29","366","Y","N","End of Study","7","2016-05-29","366","Serum","Calcium (mmol/L)","2.27085933816959","2.2","2.6"
"01-002","01","Site 01","24","F","Black","Treatment A","2015-05-30","Y","2015-07-29","61","2016-05-29","366","Y","N","End of Study","7","2016-05-29","366","Serum","Chloride (mmol/L)","","98","106"
"01-002","01","Site 01","24","F","Black","Treatment A","2015-05-30","Y","2015-07-29","61","2016-05-29","366","Y","N","End of Study","7","2016-05-29","366","Serum","Creatinine (µmol/L)","52.9047646294469","61.9","115"
"01-002","01","Site 01","24","F","Black","Treatment A","2015-05-30","Y","2015-07-29","61","2016-05-29","366","Y","N","End of Study","7","2016-05-29","366","Serum","Direct Bilirubin (µmol/L)","","0","5.1"
"01-002","01","Site 01","24","F","Black","Treatment A","2015-05-30","Y","2015-07-29","61","2016-05-29","366","Y","N","End of Study","7","2016-05-29","366","Serum","IgE (mg/L)","0.337110825372803","0.1","0.4"
"01-002","01","Site 01","24","F","Black","Treatment A","2015-05-30","Y","2015-07-29","61","2016-05-29","366","Y","N","End of Study","7","2016-05-29","366","Serum","Magnesium (mmol/L)","0.751692466131351","0.62","0.99"
"01-002","01","Site 01","24","F","Black","Treatment A","2015-05-30","Y","2015-07-29","61","2016-05-29","366","Y","N","End of Study","7","2016-05-29","366","Serum","Potassium (mmol/L)","4.06687102337573","3.5","5"
"01-002","01","Site 01","24","F","Black","Treatment A","2015-05-30","Y","2015-07-29","61","2016-05-29","366","Y","N","End of Study","7","2016-05-29","366","Serum","Sodium (mmol/L)","146.456017187579","136","145"
"01-002","01","Site 01","24","F","Black","Treatment A","2015-05-30","Y","2015-07-29","61","2016-05-29","366","Y","N","End of Study","7","2016-05-29","366","Serum","Total Bilirubin (µmol/L)","0.0605886172231198","5.1","20.5"
"01-003","01","Site 01","43","F","Hispanic","Placebo","2015-08-14","Y","2015-10-05","53","2016-08-19","372","Y","Y","Screening","0","2015-08-14","1","Blood","Platelet count (x 109/L)","223.55994732341","150","350"
"01-003","01","Site 01","43","F","Hispanic","Placebo","2015-08-14","Y","2015-10-05","53","2016-08-19","372","Y","Y","Screening","0","2015-08-14","1","Blood","RBC count (x 1012 cells/L)","4.57240783291865","4.2","5.9"
"01-003","01","Site 01","43","F","Hispanic","Placebo","2015-08-14","Y","2015-10-05","53","2016-08-19","372","Y","Y","Screening","0","2015-08-14","1","Blood","WBC count (x 109 cells/L)","7.96447272383614","4.5","11"
"01-003","01","Site 01","43","F","Hispanic","Placebo","2015-08-14","Y","2015-10-05","53","2016-08-19","372","Y","Y","Screening","0","2015-08-14","1","Serum","Albumin (g/L)","39.0709864520223","35","55"
"01-003","01","Site 01","43","F","Hispanic","Placebo","2015-08-14","Y","2015-10-05","53","2016-08-19","372","Y","Y","Screening","0","2015-08-14","1","Serum","Alkaline phosphatase (ALP) (µkat/L)","","0.5","1.5"
"01-003","01","Site 01","43","F","Hispanic","Placebo","2015-08-14","Y","2015-10-05","53","2016-08-19","372","Y","Y","Screening","0","2015-08-14","1","Serum","Aminotransferase, alanine (ALT) (pkat/L)","0","0","0.58"
"01-003","01","Site 01","43","F","Hispanic","Placebo","2015-08-14","Y","2015-10-05","53","2016-08-19","372","Y","Y","Screening","0","2015-08-14","1","Serum","Aminotransferase, aspartate (AST) (pkat/L)","0.361388807042018","0","0.58"
"01-003","01","Site 01","43","F","Hispanic","Placebo","2015-08-14","Y","2015-10-05","53","2016-08-19","372","Y","Y","Screening","0","2015-08-14","1","Serum","Calcium (mmol/L)","2.24579933191562","2.2","2.6"
"01-003","01","Site 01","43","F","Hispanic","Placebo","2015-08-14","Y","2015-10-05","53","2016-08-19","372","Y","Y","Screening","0","2015-08-14","1","Serum","Chloride (mmol/L)","109.658042150819","98","106"
"01-003","01","Site 01","43","F","Hispanic","Placebo","2015-08-14","Y","2015-10-05","53","2016-08-19","372","Y","Y","Screening","0","2015-08-14","1","Serum","Creatinine (µmol/L)","87.9418323967715","61.9","115"
"01-003","01","Site 01","43","F","Hispanic","Placebo","2015-08-14","Y","2015-10-05","53","2016-08-19","372","Y","Y","Screening","0","2015-08-14","1","Serum","Direct Bilirubin (µmol/L)","2.72541941851861","0","5.1"
"01-003","01","Site 01","43","F","Hispanic","Placebo","2015-08-14","Y","2015-10-05","53","2016-08-19","372","Y","Y","Screening","0","2015-08-14","1","Serum","IgE (mg/L)","0.064599423507186","0.1","0.4"
"01-003","01","Site 01","43","F","Hispanic","Placebo","2015-08-14","Y","2015-10-05","53","2016-08-19","372","Y","Y","Screening","0","2015-08-14","1","Serum","Magnesium (mmol/L)","0.914394757703962","0.62","0.99"
"01-003","01","Site 01","43","F","Hispanic","Placebo","2015-08-14","Y","2015-10-05","53","2016-08-19","372","Y","Y","Screening","0","2015-08-14","1","Serum","Potassium (mmol/L)","3.48645232433414","3.5","5"
"01-003","01","Site 01","43","F","Hispanic","Placebo","2015-08-14","Y","2015-10-05","53","2016-08-19","372","Y","Y","Screening","0","2015-08-14","1","Serum","Sodium (mmol/L)","147.194440685289","136","145"
"01-003","01","Site 01","43","F","Hispanic","Placebo","2015-08-14","Y","2015-10-05","53","2016-08-19","372","Y","Y","Screening","0","2015-08-14","1","Serum","Total Bilirubin (µmol/L)","21.7206535630321","5.1","20.5"
"01-003","01","Site 01","43","F","Hispanic","Placebo","2015-08-14","Y","2015-10-05","53","2016-08-19","372","Y","Y","Unscheduled 0.1","0.1","2015-08-22","9","Blood","Platelet count (x 109/L)","311.007772840685","150","350"
"01-003","01","Site 01","43","F","Hispanic","Placebo","2015-08-14","Y","2015-10-05","53","2016-08-19","372","Y","Y","Unscheduled 0.1","0.1","2015-08-22","9","Blood","RBC count (x 1012 cells/L)","4.11359370148629","4.2","5.9"
"01-003","01","Site 01","43","F","Hispanic","Placebo","2015-08-14","Y","2015-10-05","53","2016-08-19","372","Y","Y","Unscheduled 0.1","0.1","2015-08-22","9","Blood","WBC count (x 109 cells/L)","2.77550360024179","4.5","11"
"01-003","01","Site 01","43","F","Hispanic","Placebo","2015-08-14","Y","2015-10-05","53","2016-08-19","372","Y","Y","Unscheduled 0.1","0.1","2015-08-22","9","Serum","Albumin (g/L)","55.3071695800095","35","55"
"01-003","01","Site 01","43","F","Hispanic","Placebo","2015-08-14","Y","2015-10-05","53","2016-08-19","372","Y","Y","Unscheduled 0.1","0.1","2015-08-22","9","Serum","Alkaline phosphatase (ALP) (µkat/L)","1.50457581544233","0.5","1.5"
"01-003","01","Site 01","43","F","Hispanic","Placebo","2015-08-14","Y","2015-10-05","53","2016-08-19","372","Y","Y","Unscheduled 0.1","0.1","2015-08-22","9","Serum","Aminotransferase, alanine (ALT) (pkat/L)","0.577604796378049","0","0.58"
"01-003","01","Site 01","43","F","Hispanic","Placebo","2015-08-14","Y","2015-10-05","53","2016-08-19","372","Y","Y","Unscheduled 0.1","0.1","2015-08-22","9","Serum","Aminotransferase, aspartate (AST) (pkat/L)","0","0","0.58"
"01-003","01","Site 01","43","F","Hispanic","Placebo","2015-08-14","Y","2015-10-05","53","2016-08-19","372","Y","Y","Unscheduled 0.1","0.1","2015-08-22","9","Serum","Calcium (mmol/L)","2.47601451290191","2.2","2.6"
"01-003","01","Site 01","43","F","Hispanic","Placebo","2015-08-14","Y","2015-10-05","53","2016-08-19","372","Y","Y","Unscheduled 0.1","0.1","2015-08-22","9","Serum","Chloride (mmol/L)","97.0385057063593","98","106"
"01-003","01","Site 01","43","F","Hispanic","Placebo","2015-08-14","Y","2015-10-05","53","2016-08-19","372","Y","Y","Unscheduled 0.1","0.1","2015-08-22","9","Serum","Creatinine (µmol/L)","10.9636002538488","61.9","115"
"01-003","01","Site 01","43","F","Hispanic","Placebo","2015-08-14","Y","2015-10-05","53","2016-08-19","372","Y","Y","Unscheduled 0.1","0.1","2015-08-22","9","Serum","Direct Bilirubin (µmol/L)","0.580236764147341","0","5.1"
"01-003","01","Site 01","43","F","Hispanic","Placebo","2015-08-14","Y","2015-10-05","53","2016-08-19","372","Y","Y","Unscheduled 0.1","0.1","2015-08-22","9","Serum","IgE (mg/L)","0.385207650629574","0.1","0.4"
"01-003","01","Site 01","43","F","Hispanic","Placebo","2015-08-14","Y","2015-10-05","53","2016-08-19","372","Y","Y","Unscheduled 0.1","0.1","2015-08-22","9","Serum","Magnesium (mmol/L)","0.902716574431194","0.62","0.99"
"01-003","01","Site 01","43","F","Hispanic","Placebo","2015-08-14","Y","2015-10-05","53","2016-08-19","372","Y","Y","Unscheduled 0.1","0.1","2015-08-22","9","Serum","Potassium (mmol/L)","2.94969017896397","3.5","5"
"01-003","01","Site 01","43","F","Hispanic","Placebo","2015-08-14","Y","2015-10-05","53","2016-08-19","372","Y","Y","Unscheduled 0.1","0.1","2015-08-22","9","Serum","Sodium (mmol/L)","145.78198030527","136","145"
"01-003","01","Site 01","43","F","Hispanic","Placebo","2015-08-14","Y","2015-10-05","53","2016-08-19","372","Y","Y","Unscheduled 0.1","0.1","2015-08-22","9","Serum","Total Bilirubin (µmol/L)","7.54921993400722","5.1","20.5"
"01-003","01","Site 01","43","F","Hispanic","Placebo","2015-08-14","Y","2015-10-05","53","2016-08-19","372","Y","Y","Visit 1","1","2015-10-05","53","Blood","Platelet count (x 109/L)","175.290582986618","150","350"
"01-003","01","Site 01","43","F","Hispanic","Placebo","2015-08-14","Y","2015-10-05","53","2016-08-19","372","Y","Y","Visit 1","1","2015-10-05","53","Blood","RBC count (x 1012 cells/L)","5.07654526002678","4.2","5.9"
"01-003","01","Site 01","43","F","Hispanic","Placebo","2015-08-14","Y","2015-10-05","53","2016-08-19","372","Y","Y","Visit 1","1","2015-10-05","53","Blood","WBC count (x 109 cells/L)","6.65301651148872","4.5","11"
"01-003","01","Site 01","43","F","Hispanic","Placebo","2015-08-14","Y","2015-10-05","53","2016-08-19","372","Y","Y","Visit 1","1","2015-10-05","53","Serum","Albumin (g/L)","42.9928037091179","35","55"
"01-003","01","Site 01","43","F","Hispanic","Placebo","2015-08-14","Y","2015-10-05","53","2016-08-19","372","Y","Y","Visit 1","1","2015-10-05","53","Serum","Alkaline phosphatase (ALP) (µkat/L)","1.22993618574611","0.5","1.5"
"01-003","01","Site 01","43","F","Hispanic","Placebo","2015-08-14","Y","2015-10-05","53","2016-08-19","372","Y","Y","Visit 1","1","2015-10-05","53","Serum","Aminotransferase, alanine (ALT) (pkat/L)","0.779353025983582","0","0.58"
"01-003","01","Site 01","43","F","Hispanic","Placebo","2015-08-14","Y","2015-10-05","53","2016-08-19","372","Y","Y","Visit 1","1","2015-10-05","53","Serum","Aminotransferase, aspartate (AST) (pkat/L)","0.563865658786749","0","0.58"
"01-003","01","Site 01","43","F","Hispanic","Placebo","2015-08-14","Y","2015-10-05","53","2016-08-19","372","Y","Y","Visit 1","1","2015-10-05","53","Serum","Calcium (mmol/L)","2.39874136255693","2.2","2.6"
"01-003","01","Site 01","43","F","Hispanic","Placebo","2015-08-14","Y","2015-10-05","53","2016-08-19","372","Y","Y","Visit 1","1","2015-10-05","53","Serum","Chloride (mmol/L)","","98","106"
"01-003","01","Site 01","43","F","Hispanic","Placebo","2015-08-14","Y","2015-10-05","53","2016-08-19","372","Y","Y","Visit 1","1","2015-10-05","53","Serum","Creatinine (µmol/L)","46.6768326268138","61.9","115"
"01-003","01","Site 01","43","F","Hispanic","Placebo","2015-08-14","Y","2015-10-05","53","2016-08-19","372","Y","Y","Visit 1","1","2015-10-05","53","Serum","Direct Bilirubin (µmol/L)","2.41558012586117","0","5.1"
"01-003","01","Site 01","43","F","Hispanic","Placebo","2015-08-14","Y","2015-10-05","53","2016-08-19","372","Y","Y","Visit 1","1","2015-10-05","53","Serum","IgE (mg/L)","0.166788772948486","0.1","0.4"
"01-003","01","Site 01","43","F","Hispanic","Placebo","2015-08-14","Y","2015-10-05","53","2016-08-19","372","Y","Y","Visit 1","1","2015-10-05","53","Serum","Magnesium (mmol/L)","1.07548410406877","0.62","0.99"
"01-003","01","Site 01","43","F","Hispanic","Placebo","2015-08-14","Y","2015-10-05","53","2016-08-19","372","Y","Y","Visit 1","1","2015-10-05","53","Serum","Potassium (mmol/L)","6.00745950957447","3.5","5"
"01-003","01","Site 01","43","F","Hispanic","Placebo","2015-08-14","Y","2015-10-05","53","2016-08-19","372","Y","Y","Visit 1","1","2015-10-05","53","Serum","Sodium (mmol/L)","136.82563219307","136","145"
"01-003","01","Site 01","43","F","Hispanic","Placebo","2015-08-14","Y","2015-10-05","53","2016-08-19","372","Y","Y","Visit 1","1","2015-10-05","53","Serum","Total Bilirubin (µmol/L)","26.5905364603515","5.1","20.5"
"01-003","01","Site 01","43","F","Hispanic","Placebo","2015-08-14","Y","2015-10-05","53","2016-08-19","372","Y","Y","Visit 2","2","2015-12-09","118","Blood","Platelet count (x 109/L)","124.671147171301","150","350"
"01-003","01","Site 01","43","F","Hispanic","Placebo","2015-08-14","Y","2015-10-05","53","2016-08-19","372","Y","Y","Visit 2","2","2015-12-09","118","Blood","RBC count (x 1012 cells/L)","4.7924044683356","4.2","5.9"
"01-003","01","Site 01","43","F","Hispanic","Placebo","2015-08-14","Y","2015-10-05","53","2016-08-19","372","Y","Y","Visit 2","2","2015-12-09","118","Blood","WBC count (x 109 cells/L)","9.6288428673302","4.5","11"
"01-003","01","Site 01","43","F","Hispanic","Placebo","2015-08-14","Y","2015-10-05","53","2016-08-19","372","Y","Y","Visit 2","2","2015-12-09","118","Serum","Albumin (g/L)","46.8971623803667","35","55"
"01-003","01","Site 01","43","F","Hispanic","Placebo","2015-08-14","Y","2015-10-05","53","2016-08-19","372","Y","Y","Visit 2","2","2015-12-09","118","Serum","Alkaline phosphatase (ALP) (µkat/L)","1.00899680879572","0.5","1.5"
"01-003","01","Site 01","43","F","Hispanic","Placebo","2015-08-14","Y","2015-10-05","53","2016-08-19","372","Y","Y","Visit 2","2","2015-12-09","118","Serum","Aminotransferase, alanine (ALT) (pkat/L)","0.311555986581728","0","0.58"
"01-003","01","Site 01","43","F","Hispanic","Placebo","2015-08-14","Y","2015-10-05","53","2016-08-19","372","Y","Y","Visit 2","2","2015-12-09","118","Serum","Aminotransferase, aspartate (AST) (pkat/L)","0.473704995082346","0","0.58"
"01-003","01","Site 01","43","F","Hispanic","Placebo","2015-08-14","Y","2015-10-05","53","2016-08-19","372","Y","Y","Visit 2","2","2015-12-09","118","Serum","Calcium (mmol/L)","2.48630173618568","2.2","2.6"
"01-003","01","Site 01","43","F","Hispanic","Placebo","2015-08-14","Y","2015-10-05","53","2016-08-19","372","Y","Y","Visit 2","2","2015-12-09","118","Serum","Chloride (mmol/L)","103.68924342176","98","106"
"01-003","01","Site 01","43","F","Hispanic","Placebo","2015-08-14","Y","2015-10-05","53","2016-08-19","372","Y","Y","Visit 2","2","2015-12-09","118","Serum","Creatinine (µmol/L)","115.943852905367","61.9","115"
"01-003","01","Site 01","43","F","Hispanic","Placebo","2015-08-14","Y","2015-10-05","53","2016-08-19","372","Y","Y","Visit 2","2","2015-12-09","118","Serum","Direct Bilirubin (µmol/L)","0","0","5.1"
"01-003","01","Site 01","43","F","Hispanic","Placebo","2015-08-14","Y","2015-10-05","53","2016-08-19","372","Y","Y","Visit 2","2","2015-12-09","118","Serum","IgE (mg/L)","0.752358037956007","0.1","0.4"
"01-003","01","Site 01","43","F","Hispanic","Placebo","2015-08-14","Y","2015-10-05","53","2016-08-19","372","Y","Y","Visit 2","2","2015-12-09","118","Serum","Magnesium (mmol/L)","1.03046180421843","0.62","0.99"
"01-003","01","Site 01","43","F","Hispanic","Placebo","2015-08-14","Y","2015-10-05","53","2016-08-19","372","Y","Y","Visit 2","2","2015-12-09","118","Serum","Potassium (mmol/L)","4.67474017852523","3.5","5"
"01-003","01","Site 01","43","F","Hispanic","Placebo","2015-08-14","Y","2015-10-05","53","2016-08-19","372","Y","Y","Visit 2","2","2015-12-09","118","Serum","Sodium (mmol/L)","140.061961580653","136","145"
"01-003","01","Site 01","43","F","Hispanic","Placebo","2015-08-14","Y","2015-10-05","53","2016-08-19","372","Y","Y","Visit 2","2","2015-12-09","118","Serum","Total Bilirubin (µmol/L)","11.4873680683192","5.1","20.5"
"01-003","01","Site 01","43","F","Hispanic","Placebo","2015-08-14","Y","2015-10-05","53","2016-08-19","372","Y","Y","Visit 3","3","2016-01-28","168","Blood","Platelet count (x 109/L)","246.104899216653","150","350"
"01-003","01","Site 01","43","F","Hispanic","Placebo","2015-08-14","Y","2015-10-05","53","2016-08-19","372","Y","Y","Visit 3","3","2016-01-28","168","Blood","RBC count (x 1012 cells/L)","5.51019003020005","4.2","5.9"
"01-003","01","Site 01","43","F","Hispanic","Placebo","2015-08-14","Y","2015-10-05","53","2016-08-19","372","Y","Y","Visit 3","3","2016-01-28","168","Blood","WBC count (x 109 cells/L)","0","4.5","11"
"01-003","01","Site 01","43","F","Hispanic","Placebo","2015-08-14","Y","2015-10-05","53","2016-08-19","372","Y","Y","Visit 3","3","2016-01-28","168","Serum","Albumin (g/L)","44.5820817782363","35","55"
"01-003","01","Site 01","43","F","Hispanic","Placebo","2015-08-14","Y","2015-10-05","53","2016-08-19","372","Y","Y","Visit 3","3","2016-01-28","168","Serum","Alkaline phosphatase (ALP) (µkat/L)","","0.5","1.5"
"01-003","01","Site 01","43","F","Hispanic","Placebo","2015-08-14","Y","2015-10-05","53","2016-08-19","372","Y","Y","Visit 3","3","2016-01-28","168","Serum","Aminotransferase, alanine (ALT) (pkat/L)","0.480864529477909","0","0.58"
"01-003","01","Site 01","43","F","Hispanic","Placebo","2015-08-14","Y","2015-10-05","53","2016-08-19","372","Y","Y","Visit 3","3","2016-01-28","168","Serum","Aminotransferase, aspartate (AST) (pkat/L)","0","0","0.58"
"01-003","01","Site 01","43","F","Hispanic","Placebo","2015-08-14","Y","2015-10-05","53","2016-08-19","372","Y","Y","Visit 3","3","2016-01-28","168","Serum","Calcium (mmol/L)","2.85790964806187","2.2","2.6"
"01-003","01","Site 01","43","F","Hispanic","Placebo","2015-08-14","Y","2015-10-05","53","2016-08-19","372","Y","Y","Visit 3","3","2016-01-28","168","Serum","Chloride (mmol/L)","98.7870255474392","98","106"
"01-003","01","Site 01","43","F","Hispanic","Placebo","2015-08-14","Y","2015-10-05","53","2016-08-19","372","Y","Y","Visit 3","3","2016-01-28","168","Serum","Creatinine (µmol/L)","67.8986845806728","61.9","115"
"01-003","01","Site 01","43","F","Hispanic","Placebo","2015-08-14","Y","2015-10-05","53","2016-08-19","372","Y","Y","Visit 3","3","2016-01-28","168","Serum","Direct Bilirubin (µmol/L)","7.63824382581563","0","5.1"
"01-003","01","Site 01","43","F","Hispanic","Placebo","2015-08-14","Y","2015-10-05","53","2016-08-19","372","Y","Y","Visit 3","3","2016-01-28","168","Serum","IgE (mg/L)","0.140702452256999","0.1","0.4"
"01-003","01","Site 01","43","F","Hispanic","Placebo","2015-08-14","Y","2015-10-05","53","2016-08-19","372","Y","Y","Visit 3","3","2016-01-28","168","Serum","Magnesium (mmol/L)","0.648739400502981","0.62","0.99"
"01-003","01","Site 01","43","F","Hispanic","Placebo","2015-08-14","Y","2015-10-05","53","2016-08-19","372","Y","Y","Visit 3","3","2016-01-28","168","Serum","Potassium (mmol/L)","3.531828065982","3.5","5"
"01-003","01","Site 01","43","F","Hispanic","Placebo","2015-08-14","Y","2015-10-05","53","2016-08-19","372","Y","Y","Visit 3","3","2016-01-28","168","Serum","Sodium (mmol/L)","","136","145"
"01-003","01","Site 01","43","F","Hispanic","Placebo","2015-08-14","Y","2015-10-05","53","2016-08-19","372","Y","Y","Visit 3","3","2016-01-28","168","Serum","Total Bilirubin (µmol/L)","0","5.1","20.5"
"01-003","01","Site 01","43","F","Hispanic","Placebo","2015-08-14","Y","2015-10-05","53","2016-08-19","372","Y","Y","Visit 4","4","2016-03-22","222","Blood","Platelet count (x 109/L)","119.617626360633","150","350"
"01-003","01","Site 01","43","F","Hispanic","Placebo","2015-08-14","Y","2015-10-05","53","2016-08-19","372","Y","Y","Visit 4","4","2016-03-22","222","Blood","RBC count (x 1012 cells/L)","5.94202306198192","4.2","5.9"
"01-003","01","Site 01","43","F","Hispanic","Placebo","2015-08-14","Y","2015-10-05","53","2016-08-19","372","Y","Y","Visit 4","4","2016-03-22","222","Blood","WBC count (x 109 cells/L)","5.56455627049745","4.5","11"
"01-003","01","Site 01","43","F","Hispanic","Placebo","2015-08-14","Y","2015-10-05","53","2016-08-19","372","Y","Y","Visit 4","4","2016-03-22","222","Serum","Albumin (g/L)","52.6777892269523","35","55"
"01-003","01","Site 01","43","F","Hispanic","Placebo","2015-08-14","Y","2015-10-05","53","2016-08-19","372","Y","Y","Visit 4","4","2016-03-22","222","Serum","Alkaline phosphatase (ALP) (µkat/L)","0.987422314902211","0.5","1.5"
"01-003","01","Site 01","43","F","Hispanic","Placebo","2015-08-14","Y","2015-10-05","53","2016-08-19","372","Y","Y","Visit 4","4","2016-03-22","222","Serum","Aminotransferase, alanine (ALT) (pkat/L)","0","0","0.58"
"01-003","01","Site 01","43","F","Hispanic","Placebo","2015-08-14","Y","2015-10-05","53","2016-08-19","372","Y","Y","Visit 4","4","2016-03-22","222","Serum","Aminotransferase, aspartate (AST) (pkat/L)","0.797254788094703","0","0.58"
"01-003","01","Site 01","43","F","Hispanic","Placebo","2015-08-14","Y","2015-10-05","53","2016-08-19","372","Y","Y","Visit 4","4","2016-03-22","222","Serum","Calcium (mmol/L)","2.35240296867047","2.2","2.6"
"01-003","01","Site 01","43","F","Hispanic","Placebo","2015-08-14","Y","2015-10-05","53","2016-08-19","372","Y","Y","Visit 4","4","2016-03-22","222","Serum","Chloride (mmol/L)","","98","106"
"01-003","01","Site 01","43","F","Hispanic","Placebo","2015-08-14","Y","2015-10-05","53","2016-08-19","372","Y","Y","Visit 4","4","2016-03-22","222","Serum","Creatinine (µmol/L)","47.4056449335471","61.9","115"
"01-003","01","Site 01","43","F","Hispanic","Placebo","2015-08-14","Y","2015-10-05","53","2016-08-19","372","Y","Y","Visit 4","4","2016-03-22","222","Serum","Direct Bilirubin (µmol/L)","0","0","5.1"
"01-003","01","Site 01","43","F","Hispanic","Placebo","2015-08-14","Y","2015-10-05","53","2016-08-19","372","Y","Y","Visit 4","4","2016-03-22","222","Serum","IgE (mg/L)","0.32964162468211","0.1","0.4"
"01-003","01","Site 01","43","F","Hispanic","Placebo","2015-08-14","Y","2015-10-05","53","2016-08-19","372","Y","Y","Visit 4","4","2016-03-22","222","Serum","Magnesium (mmol/L)","0.907780847984225","0.62","0.99"
"01-003","01","Site 01","43","F","Hispanic","Placebo","2015-08-14","Y","2015-10-05","53","2016-08-19","372","Y","Y","Visit 4","4","2016-03-22","222","Serum","Potassium (mmol/L)","3.68806573069659","3.5","5"
"01-003","01","Site 01","43","F","Hispanic","Placebo","2015-08-14","Y","2015-10-05","53","2016-08-19","372","Y","Y","Visit 4","4","2016-03-22","222","Serum","Sodium (mmol/L)","141.286672506985","136","145"
"01-003","01","Site 01","43","F","Hispanic","Placebo","2015-08-14","Y","2015-10-05","53","2016-08-19","372","Y","Y","Visit 4","4","2016-03-22","222","Serum","Total Bilirubin (µmol/L)","","5.1","20.5"
"01-003","01","Site 01","43","F","Hispanic","Placebo","2015-08-14","Y","2015-10-05","53","2016-08-19","372","Y","Y","Visit 5","5","2016-05-17","278","Blood","Platelet count (x 109/L)","264.739919876927","150","350"
"01-003","01","Site 01","43","F","Hispanic","Placebo","2015-08-14","Y","2015-10-05","53","2016-08-19","372","Y","Y","Visit 5","5","2016-05-17","278","Blood","RBC count (x 1012 cells/L)","6.3145445382636","4.2","5.9"
"01-003","01","Site 01","43","F","Hispanic","Placebo","2015-08-14","Y","2015-10-05","53","2016-08-19","372","Y","Y","Visit 5","5","2016-05-17","278","Blood","WBC count (x 109 cells/L)","","4.5","11"
"01-003","01","Site 01","43","F","Hispanic","Placebo","2015-08-14","Y","2015-10-05","53","2016-08-19","372","Y","Y","Visit 5","5","2016-05-17","278","Serum","Albumin (g/L)","41.5270331239699","35","55"
"01-003","01","Site 01","43","F","Hispanic","Placebo","2015-08-14","Y","2015-10-05","53","2016-08-19","372","Y","Y","Visit 5","5","2016-05-17","278","Serum","Alkaline phosphatase (ALP) (µkat/L)","1.42582550545413","0.5","1.5"
"01-003","01","Site 01","43","F","Hispanic","Placebo","2015-08-14","Y","2015-10-05","53","2016-08-19","372","Y","Y","Visit 5","5","2016-05-17","278","Serum","Aminotransferase, alanine (ALT) (pkat/L)","0.0889390970023709","0","0.58"
"01-003","01","Site 01","43","F","Hispanic","Placebo","2015-08-14","Y","2015-10-05","53","2016-08-19","372","Y","Y","Visit 5","5","2016-05-17","278","Serum","Aminotransferase, aspartate (AST) (pkat/L)","0","0","0.58"
"01-003","01","Site 01","43","F","Hispanic","Placebo","2015-08-14","Y","2015-10-05","53","2016-08-19","372","Y","Y","Visit 5","5","2016-05-17","278","Serum","Calcium (mmol/L)","1.9961475673778","2.2","2.6"
"01-003","01","Site 01","43","F","Hispanic","Placebo","2015-08-14","Y","2015-10-05","53","2016-08-19","372","Y","Y","Visit 5","5","2016-05-17","278","Serum","Chloride (mmol/L)","","98","106"
"01-003","01","Site 01","43","F","Hispanic","Placebo","2015-08-14","Y","2015-10-05","53","2016-08-19","372","Y","Y","Visit 5","5","2016-05-17","278","Serum","Creatinine (µmol/L)","58.3690933886268","61.9","115"
"01-003","01","Site 01","43","F","Hispanic","Placebo","2015-08-14","Y","2015-10-05","53","2016-08-19","372","Y","Y","Visit 5","5","2016-05-17","278","Serum","Direct Bilirubin (µmol/L)","0.173061044992896","0","5.1"
"01-003","01","Site 01","43","F","Hispanic","Placebo","2015-08-14","Y","2015-10-05","53","2016-08-19","372","Y","Y","Visit 5","5","2016-05-17","278","Serum","IgE (mg/L)","0.314668581985684","0.1","0.4"
"01-003","01","Site 01","43","F","Hispanic","Placebo","2015-08-14","Y","2015-10-05","53","2016-08-19","372","Y","Y","Visit 5","5","2016-05-17","278","Serum","Magnesium (mmol/L)","0.766427967296359","0.62","0.99"
"01-003","01","Site 01","43","F","Hispanic","Placebo","2015-08-14","Y","2015-10-05","53","2016-08-19","372","Y","Y","Visit 5","5","2016-05-17","278","Serum","Potassium (mmol/L)","","3.5","5"
"01-003","01","Site 01","43","F","Hispanic","Placebo","2015-08-14","Y","2015-10-05","53","2016-08-19","372","Y","Y","Visit 5","5","2016-05-17","278","Serum","Sodium (mmol/L)","136.339439958173","136","145"
"01-003","01","Site 01","43","F","Hispanic","Placebo","2015-08-14","Y","2015-10-05","53","2016-08-19","372","Y","Y","Visit 5","5","2016-05-17","278","Serum","Total Bilirubin (µmol/L)","13.847513458568","5.1","20.5"
"01-003","01","Site 01","43","F","Hispanic","Placebo","2015-08-14","Y","2015-10-05","53","2016-08-19","372","Y","Y","Visit 6","6","2016-07-14","336","Blood","Platelet count (x 109/L)","267.650231588692","150","350"
"01-003","01","Site 01","43","F","Hispanic","Placebo","2015-08-14","Y","2015-10-05","53","2016-08-19","372","Y","Y","Visit 6","6","2016-07-14","336","Blood","RBC count (x 1012 cells/L)","","4.2","5.9"
"01-003","01","Site 01","43","F","Hispanic","Placebo","2015-08-14","Y","2015-10-05","53","2016-08-19","372","Y","Y","Visit 6","6","2016-07-14","336","Blood","WBC count (x 109 cells/L)","11.1969483866284","4.5","11"
"01-003","01","Site 01","43","F","Hispanic","Placebo","2015-08-14","Y","2015-10-05","53","2016-08-19","372","Y","Y","Visit 6","6","2016-07-14","336","Serum","Albumin (g/L)","28.5333407269246","35","55"
"01-003","01","Site 01","43","F","Hispanic","Placebo","2015-08-14","Y","2015-10-05","53","2016-08-19","372","Y","Y","Visit 6","6","2016-07-14","336","Serum","Alkaline phosphatase (ALP) (µkat/L)","1.02896347463219","0.5","1.5"
"01-003","01","Site 01","43","F","Hispanic","Placebo","2015-08-14","Y","2015-10-05","53","2016-08-19","372","Y","Y","Visit 6","6","2016-07-14","336","Serum","Aminotransferase, alanine (ALT) (pkat/L)","","0","0.58"
"01-003","01","Site 01","43","F","Hispanic","Placebo","2015-08-14","Y","2015-10-05","53","2016-08-19","372","Y","Y","Visit 6","6","2016-07-14","336","Serum","Aminotransferase, aspartate (AST) (pkat/L)","0.315975609806982","0","0.58"
"01-003","01","Site 01","43","F","Hispanic","Placebo","2015-08-14","Y","2015-10-05","53","2016-08-19","372","Y","Y","Visit 6","6","2016-07-14","336","Serum","Calcium (mmol/L)","","2.2","2.6"
"01-003","01","Site 01","43","F","Hispanic","Placebo","2015-08-14","Y","2015-10-05","53","2016-08-19","372","Y","Y","Visit 6","6","2016-07-14","336","Serum","Chloride (mmol/L)","100.884475598692","98","106"
"01-003","01","Site 01","43","F","Hispanic","Placebo","2015-08-14","Y","2015-10-05","53","2016-08-19","372","Y","Y","Visit 6","6","2016-07-14","336","Serum","Creatinine (µmol/L)","95.5695188171474","61.9","115"
"01-003","01","Site 01","43","F","Hispanic","Placebo","2015-08-14","Y","2015-10-05","53","2016-08-19","372","Y","Y","Visit 6","6","2016-07-14","336","Serum","Direct Bilirubin (µmol/L)","2.7821037695051","0","5.1"
"01-003","01","Site 01","43","F","Hispanic","Placebo","2015-08-14","Y","2015-10-05","53","2016-08-19","372","Y","Y","Visit 6","6","2016-07-14","336","Serum","IgE (mg/L)","0.112381093102753","0.1","0.4"
"01-003","01","Site 01","43","F","Hispanic","Placebo","2015-08-14","Y","2015-10-05","53","2016-08-19","372","Y","Y","Visit 6","6","2016-07-14","336","Serum","Magnesium (mmol/L)","","0.62","0.99"
"01-003","01","Site 01","43","F","Hispanic","Placebo","2015-08-14","Y","2015-10-05","53","2016-08-19","372","Y","Y","Visit 6","6","2016-07-14","336","Serum","Potassium (mmol/L)","3.71827936197375","3.5","5"
"01-003","01","Site 01","43","F","Hispanic","Placebo","2015-08-14","Y","2015-10-05","53","2016-08-19","372","Y","Y","Visit 6","6","2016-07-14","336","Serum","Sodium (mmol/L)","137.696765643652","136","145"
"01-003","01","Site 01","43","F","Hispanic","Placebo","2015-08-14","Y","2015-10-05","53","2016-08-19","372","Y","Y","Visit 6","6","2016-07-14","336","Serum","Total Bilirubin (µmol/L)","27.3464143400716","5.1","20.5"
"01-003","01","Site 01","43","F","Hispanic","Placebo","2015-08-14","Y","2015-10-05","53","2016-08-19","372","Y","Y","End of Study","7","2016-08-19","372","Blood","Platelet count (x 109/L)","113.686521932303","150","350"
"01-003","01","Site 01","43","F","Hispanic","Placebo","2015-08-14","Y","2015-10-05","53","2016-08-19","372","Y","Y","End of Study","7","2016-08-19","372","Blood","RBC count (x 1012 cells/L)","5.42991875324651","4.2","5.9"
"01-003","01","Site 01","43","F","Hispanic","Placebo","2015-08-14","Y","2015-10-05","53","2016-08-19","372","Y","Y","End of Study","7","2016-08-19","372","Blood","WBC count (x 109 cells/L)","8.14532931539884","4.5","11"
"01-003","01","Site 01","43","F","Hispanic","Placebo","2015-08-14","Y","2015-10-05","53","2016-08-19","372","Y","Y","End of Study","7","2016-08-19","372","Serum","Albumin (g/L)","76.7621892537589","35","55"
"01-003","01","Site 01","43","F","Hispanic","Placebo","2015-08-14","Y","2015-10-05","53","2016-08-19","372","Y","Y","End of Study","7","2016-08-19","372","Serum","Alkaline phosphatase (ALP) (µkat/L)","0.424775811283336","0.5","1.5"
"01-003","01","Site 01","43","F","Hispanic","Placebo","2015-08-14","Y","2015-10-05","53","2016-08-19","372","Y","Y","End of Study","7","2016-08-19","372","Serum","Aminotransferase, alanine (ALT) (pkat/L)","0.258432641599254","0","0.58"
"01-003","01","Site 01","43","F","Hispanic","Placebo","2015-08-14","Y","2015-10-05","53","2016-08-19","372","Y","Y","End of Study","7","2016-08-19","372","Serum","Aminotransferase, aspartate (AST) (pkat/L)","0.478588678412311","0","0.58"
"01-003","01","Site 01","43","F","Hispanic","Placebo","2015-08-14","Y","2015-10-05","53","2016-08-19","372","Y","Y","End of Study","7","2016-08-19","372","Serum","Calcium (mmol/L)","2.11839504922422","2.2","2.6"
"01-003","01","Site 01","43","F","Hispanic","Placebo","2015-08-14","Y","2015-10-05","53","2016-08-19","372","Y","Y","End of Study","7","2016-08-19","372","Serum","Chloride (mmol/L)","","98","106"
"01-003","01","Site 01","43","F","Hispanic","Placebo","2015-08-14","Y","2015-10-05","53","2016-08-19","372","Y","Y","End of Study","7","2016-08-19","372","Serum","Creatinine (µmol/L)","91.9480656990301","61.9","115"
"01-003","01","Site 01","43","F","Hispanic","Placebo","2015-08-14","Y","2015-10-05","53","2016-08-19","372","Y","Y","End of Study","7","2016-08-19","372","Serum","Direct Bilirubin (µmol/L)","","0","5.1"
"01-003","01","Site 01","43","F","Hispanic","Placebo","2015-08-14","Y","2015-10-05","53","2016-08-19","372","Y","Y","End of Study","7","2016-08-19","372","Serum","IgE (mg/L)","0.344809626094944","0.1","0.4"
"01-003","01","Site 01","43","F","Hispanic","Placebo","2015-08-14","Y","2015-10-05","53","2016-08-19","372","Y","Y","End of Study","7","2016-08-19","372","Serum","Magnesium (mmol/L)","1.06097968448812","0.62","0.99"
"01-003","01","Site 01","43","F","Hispanic","Placebo","2015-08-14","Y","2015-10-05","53","2016-08-19","372","Y","Y","End of Study","7","2016-08-19","372","Serum","Potassium (mmol/L)","4.42455990683053","3.5","5"
"01-003","01","Site 01","43","F","Hispanic","Placebo","2015-08-14","Y","2015-10-05","53","2016-08-19","372","Y","Y","End of Study","7","2016-08-19","372","Serum","Sodium (mmol/L)","145.850859543941","136","145"
"01-003","01","Site 01","43","F","Hispanic","Placebo","2015-08-14","Y","2015-10-05","53","2016-08-19","372","Y","Y","End of Study","7","2016-08-19","372","Serum","Total Bilirubin (µmol/L)","17.6582277305605","5.1","20.5"
"01-004","01","Site 01","42","F","Hispanic","Placebo","2015-01-13","Y","2015-03-03","50","2016-01-06","359","N","Y","Screening","0","2015-01-13","1","Blood","Platelet count (x 109/L)","116.435348656289","150","350"
"01-004","01","Site 01","42","F","Hispanic","Placebo","2015-01-13","Y","2015-03-03","50","2016-01-06","359","N","Y","Screening","0","2015-01-13","1","Blood","RBC count (x 1012 cells/L)","4.20297456987509","4.2","5.9"
"01-004","01","Site 01","42","F","Hispanic","Placebo","2015-01-13","Y","2015-03-03","50","2016-01-06","359","N","Y","Screening","0","2015-01-13","1","Blood","WBC count (x 109 cells/L)","10.882152086181","4.5","11"
"01-004","01","Site 01","42","F","Hispanic","Placebo","2015-01-13","Y","2015-03-03","50","2016-01-06","359","N","Y","Screening","0","2015-01-13","1","Serum","Albumin (g/L)","56.3347194281717","35","55"
"01-004","01","Site 01","42","F","Hispanic","Placebo","2015-01-13","Y","2015-03-03","50","2016-01-06","359","N","Y","Screening","0","2015-01-13","1","Serum","Alkaline phosphatase (ALP) (µkat/L)","","0.5","1.5"
"01-004","01","Site 01","42","F","Hispanic","Placebo","2015-01-13","Y","2015-03-03","50","2016-01-06","359","N","Y","Screening","0","2015-01-13","1","Serum","Aminotransferase, alanine (ALT) (pkat/L)","0.262900991585928","0","0.58"
"01-004","01","Site 01","42","F","Hispanic","Placebo","2015-01-13","Y","2015-03-03","50","2016-01-06","359","N","Y","Screening","0","2015-01-13","1","Serum","Aminotransferase, aspartate (AST) (pkat/L)","0.177212990614355","0","0.58"
"01-004","01","Site 01","42","F","Hispanic","Placebo","2015-01-13","Y","2015-03-03","50","2016-01-06","359","N","Y","Screening","0","2015-01-13","1","Serum","Calcium (mmol/L)","2.67830825929582","2.2","2.6"
"01-004","01","Site 01","42","F","Hispanic","Placebo","2015-01-13","Y","2015-03-03","50","2016-01-06","359","N","Y","Screening","0","2015-01-13","1","Serum","Chloride (mmol/L)","102.093206061535","98","106"
"01-004","01","Site 01","42","F","Hispanic","Placebo","2015-01-13","Y","2015-03-03","50","2016-01-06","359","N","Y","Screening","0","2015-01-13","1","Serum","Creatinine (µmol/L)","108.505354230132","61.9","115"
"01-004","01","Site 01","42","F","Hispanic","Placebo","2015-01-13","Y","2015-03-03","50","2016-01-06","359","N","Y","Screening","0","2015-01-13","1","Serum","Direct Bilirubin (µmol/L)","","0","5.1"
"01-004","01","Site 01","42","F","Hispanic","Placebo","2015-01-13","Y","2015-03-03","50","2016-01-06","359","N","Y","Screening","0","2015-01-13","1","Serum","IgE (mg/L)","0.321888920291902","0.1","0.4"
"01-004","01","Site 01","42","F","Hispanic","Placebo","2015-01-13","Y","2015-03-03","50","2016-01-06","359","N","Y","Screening","0","2015-01-13","1","Serum","Magnesium (mmol/L)","0.778934472179033","0.62","0.99"
"01-004","01","Site 01","42","F","Hispanic","Placebo","2015-01-13","Y","2015-03-03","50","2016-01-06","359","N","Y","Screening","0","2015-01-13","1","Serum","Potassium (mmol/L)","4.35831243537953","3.5","5"
"01-004","01","Site 01","42","F","Hispanic","Placebo","2015-01-13","Y","2015-03-03","50","2016-01-06","359","N","Y","Screening","0","2015-01-13","1","Serum","Sodium (mmol/L)","143.617652285733","136","145"
"01-004","01","Site 01","42","F","Hispanic","Placebo","2015-01-13","Y","2015-03-03","50","2016-01-06","359","N","Y","Screening","0","2015-01-13","1","Serum","Total Bilirubin (µmol/L)","20.0868860814231","5.1","20.5"
"01-004","01","Site 01","42","F","Hispanic","Placebo","2015-01-13","Y","2015-03-03","50","2016-01-06","359","N","Y","Visit 1","1","2015-03-03","50","Blood","Platelet count (x 109/L)","267.982350919185","150","350"
"01-004","01","Site 01","42","F","Hispanic","Placebo","2015-01-13","Y","2015-03-03","50","2016-01-06","359","N","Y","Visit 1","1","2015-03-03","50","Blood","RBC count (x 1012 cells/L)","4.2606566527605","4.2","5.9"
"01-004","01","Site 01","42","F","Hispanic","Placebo","2015-01-13","Y","2015-03-03","50","2016-01-06","359","N","Y","Visit 1","1","2015-03-03","50","Blood","WBC count (x 109 cells/L)","7.21785337164291","4.5","11"
"01-004","01","Site 01","42","F","Hispanic","Placebo","2015-01-13","Y","2015-03-03","50","2016-01-06","359","N","Y","Visit 1","1","2015-03-03","50","Serum","Albumin (g/L)","54.4247543180065","35","55"
"01-004","01","Site 01","42","F","Hispanic","Placebo","2015-01-13","Y","2015-03-03","50","2016-01-06","359","N","Y","Visit 1","1","2015-03-03","50","Serum","Alkaline phosphatase (ALP) (µkat/L)","0.459285738200132","0.5","1.5"
"01-004","01","Site 01","42","F","Hispanic","Placebo","2015-01-13","Y","2015-03-03","50","2016-01-06","359","N","Y","Visit 1","1","2015-03-03","50","Serum","Aminotransferase, alanine (ALT) (pkat/L)","0.462110712811875","0","0.58"
"01-004","01","Site 01","42","F","Hispanic","Placebo","2015-01-13","Y","2015-03-03","50","2016-01-06","359","N","Y","Visit 1","1","2015-03-03","50","Serum","Aminotransferase, aspartate (AST) (pkat/L)","0","0","0.58"
"01-004","01","Site 01","42","F","Hispanic","Placebo","2015-01-13","Y","2015-03-03","50","2016-01-06","359","N","Y","Visit 1","1","2015-03-03","50","Serum","Calcium (mmol/L)","2.07613687706431","2.2","2.6"
"01-004","01","Site 01","42","F","Hispanic","Placebo","2015-01-13","Y","2015-03-03","50","2016-01-06","359","N","Y","Visit 1","1","2015-03-03","50","Serum","Chloride (mmol/L)","","98","106"
"01-004","01","Site 01","42","F","Hispanic","Placebo","2015-01-13","Y","2015-03-03","50","2016-01-06","359","N","Y","Visit 1","1","2015-03-03","50","Serum","Creatinine (µmol/L)","94.3817998968779","61.9","115"
"01-004","01","Site 01","42","F","Hispanic","Placebo","2015-01-13","Y","2015-03-03","50","2016-01-06","359","N","Y","Visit 1","1","2015-03-03","50","Serum","Direct Bilirubin (µmol/L)","0","0","5.1"
"01-004","01","Site 01","42","F","Hispanic","Placebo","2015-01-13","Y","2015-03-03","50","2016-01-06","359","N","Y","Visit 1","1","2015-03-03","50","Serum","IgE (mg/L)","0.267635757657066","0.1","0.4"
"01-004","01","Site 01","42","F","Hispanic","Placebo","2015-01-13","Y","2015-03-03","50","2016-01-06","359","N","Y","Visit 1","1","2015-03-03","50","Serum","Magnesium (mmol/L)","0.809909140439191","0.62","0.99"
"01-004","01","Site 01","42","F","Hispanic","Placebo","2015-01-13","Y","2015-03-03","50","2016-01-06","359","N","Y","Visit 1","1","2015-03-03","50","Serum","Potassium (mmol/L)","4.74701063289354","3.5","5"
"01-004","01","Site 01","42","F","Hispanic","Placebo","2015-01-13","Y","2015-03-03","50","2016-01-06","359","N","Y","Visit 1","1","2015-03-03","50","Serum","Sodium (mmol/L)","140.57298778291","136","145"
"01-004","01","Site 01","42","F","Hispanic","Placebo","2015-01-13","Y","2015-03-03","50","2016-01-06","359","N","Y","Visit 1","1","2015-03-03","50","Serum","Total Bilirubin (µmol/L)","7.90717311986534","5.1","20.5"
"01-004","01","Site 01","42","F","Hispanic","Placebo","2015-01-13","Y","2015-03-03","50","2016-01-06","359","N","Y","Visit 2","2","2015-05-01","109","Blood","Platelet count (x 109/L)","374.79160801141","150","350"
"01-004","01","Site 01","42","F","Hispanic","Placebo","2015-01-13","Y","2015-03-03","50","2016-01-06","359","N","Y","Visit 2","2","2015-05-01","109","Blood","RBC count (x 1012 cells/L)","6.84425580001966","4.2","5.9"
"01-004","01","Site 01","42","F","Hispanic","Placebo","2015-01-13","Y","2015-03-03","50","2016-01-06","359","N","Y","Visit 2","2","2015-05-01","109","Blood","WBC count (x 109 cells/L)","5.55223696517204","4.5","11"
"01-004","01","Site 01","42","F","Hispanic","Placebo","2015-01-13","Y","2015-03-03","50","2016-01-06","359","N","Y","Visit 2","2","2015-05-01","109","Serum","Albumin (g/L)","35.8239056335028","35","55"
"01-004","01","Site 01","42","F","Hispanic","Placebo","2015-01-13","Y","2015-03-03","50","2016-01-06","359","N","Y","Visit 2","2","2015-05-01","109","Serum","Alkaline phosphatase (ALP) (µkat/L)","1.70566598918395","0.5","1.5"
"01-004","01","Site 01","42","F","Hispanic","Placebo","2015-01-13","Y","2015-03-03","50","2016-01-06","359","N","Y","Visit 2","2","2015-05-01","109","Serum","Aminotransferase, alanine (ALT) (pkat/L)","0.144609845266858","0","0.58"
"01-004","01","Site 01","42","F","Hispanic","Placebo","2015-01-13","Y","2015-03-03","50","2016-01-06","359","N","Y","Visit 2","2","2015-05-01","109","Serum","Aminotransferase, aspartate (AST) (pkat/L)","0.276862183715109","0","0.58"
"01-004","01","Site 01","42","F","Hispanic","Placebo","2015-01-13","Y","2015-03-03","50","2016-01-06","359","N","Y","Visit 2","2","2015-05-01","109","Serum","Calcium (mmol/L)","2.27237716393068","2.2","2.6"
"01-004","01","Site 01","42","F","Hispanic","Placebo","2015-01-13","Y","2015-03-03","50","2016-01-06","359","N","Y","Visit 2","2","2015-05-01","109","Serum","Chloride (mmol/L)","97.1974631314077","98","106"
"01-004","01","Site 01","42","F","Hispanic","Placebo","2015-01-13","Y","2015-03-03","50","2016-01-06","359","N","Y","Visit 2","2","2015-05-01","109","Serum","Creatinine (µmol/L)","89.0707439584603","61.9","115"
"01-004","01","Site 01","42","F","Hispanic","Placebo","2015-01-13","Y","2015-03-03","50","2016-01-06","359","N","Y","Visit 2","2","2015-05-01","109","Serum","Direct Bilirubin (µmol/L)","4.96095024956007","0","5.1"
"01-004","01","Site 01","42","F","Hispanic","Placebo","2015-01-13","Y","2015-03-03","50","2016-01-06","359","N","Y","Visit 2","2","2015-05-01","109","Serum","IgE (mg/L)","","0.1","0.4"
"01-004","01","Site 01","42","F","Hispanic","Placebo","2015-01-13","Y","2015-03-03","50","2016-01-06","359","N","Y","Visit 2","2","2015-05-01","109","Serum","Magnesium (mmol/L)","0.695836698962725","0.62","0.99"
"01-004","01","Site 01","42","F","Hispanic","Placebo","2015-01-13","Y","2015-03-03","50","2016-01-06","359","N","Y","Visit 2","2","2015-05-01","109","Serum","Potassium (mmol/L)","3.37829065401801","3.5","5"
"01-004","01","Site 01","42","F","Hispanic","Placebo","2015-01-13","Y","2015-03-03","50","2016-01-06","359","N","Y","Visit 2","2","2015-05-01","109","Serum","Sodium (mmol/L)","140.800509611541","136","145"
"01-004","01","Site 01","42","F","Hispanic","Placebo","2015-01-13","Y","2015-03-03","50","2016-01-06","359","N","Y","Visit 2","2","2015-05-01","109","Serum","Total Bilirubin (µmol/L)","16.5150061505764","5.1","20.5"
"01-004","01","Site 01","42","F","Hispanic","Placebo","2015-01-13","Y","2015-03-03","50","2016-01-06","359","N","Y","Visit 3","3","2015-06-25","164","Blood","Platelet count (x 109/L)","234.213651110506","150","350"
"01-004","01","Site 01","42","F","Hispanic","Placebo","2015-01-13","Y","2015-03-03","50","2016-01-06","359","N","Y","Visit 3","3","2015-06-25","164","Blood","RBC count (x 1012 cells/L)","3.40086322471893","4.2","5.9"
"01-004","01","Site 01","42","F","Hispanic","Placebo","2015-01-13","Y","2015-03-03","50","2016-01-06","359","N","Y","Visit 3","3","2015-06-25","164","Blood","WBC count (x 109 cells/L)","7.81138971371335","4.5","11"
"01-004","01","Site 01","42","F","Hispanic","Placebo","2015-01-13","Y","2015-03-03","50","2016-01-06","359","N","Y","Visit 3","3","2015-06-25","164","Serum","Albumin (g/L)","52.8316273601826","35","55"
"01-004","01","Site 01","42","F","Hispanic","Placebo","2015-01-13","Y","2015-03-03","50","2016-01-06","359","N","Y","Visit 3","3","2015-06-25","164","Serum","Alkaline phosphatase (ALP) (µkat/L)","0.670520717874627","0.5","1.5"
"01-004","01","Site 01","42","F","Hispanic","Placebo","2015-01-13","Y","2015-03-03","50","2016-01-06","359","N","Y","Visit 3","3","2015-06-25","164","Serum","Aminotransferase, alanine (ALT) (pkat/L)","0.202102538702251","0","0.58"
"01-004","01","Site 01","42","F","Hispanic","Placebo","2015-01-13","Y","2015-03-03","50","2016-01-06","359","N","Y","Visit 3","3","2015-06-25","164","Serum","Aminotransferase, aspartate (AST) (pkat/L)","0.534150140206022","0","0.58"
"01-004","01","Site 01","42","F","Hispanic","Placebo","2015-01-13","Y","2015-03-03","50","2016-01-06","359","N","Y","Visit 3","3","2015-06-25","164","Serum","Calcium (mmol/L)","2.6047520759922","2.2","2.6"
"01-004","01","Site 01","42","F","Hispanic","Placebo","2015-01-13","Y","2015-03-03","50","2016-01-06","359","N","Y","Visit 3","3","2015-06-25","164","Serum","Chloride (mmol/L)","103.607370469467","98","106"
"01-004","01","Site 01","42","F","Hispanic","Placebo","2015-01-13","Y","2015-03-03","50","2016-01-06","359","N","Y","Visit 3","3","2015-06-25","164","Serum","Creatinine (µmol/L)","81.2771164993477","61.9","115"
"01-004","01","Site 01","42","F","Hispanic","Placebo","2015-01-13","Y","2015-03-03","50","2016-01-06","359","N","Y","Visit 3","3","2015-06-25","164","Serum","Direct Bilirubin (µmol/L)","7.90747496724615","0","5.1"
"01-004","01","Site 01","42","F","Hispanic","Placebo","2015-01-13","Y","2015-03-03","50","2016-01-06","359","N","Y","Visit 3","3","2015-06-25","164","Serum","IgE (mg/L)","0.239658790921555","0.1","0.4"
"01-004","01","Site 01","42","F","Hispanic","Placebo","2015-01-13","Y","2015-03-03","50","2016-01-06","359","N","Y","Visit 3","3","2015-06-25","164","Serum","Magnesium (mmol/L)","0.738644307823301","0.62","0.99"
"01-004","01","Site 01","42","F","Hispanic","Placebo","2015-01-13","Y","2015-03-03","50","2016-01-06","359","N","Y","Visit 3","3","2015-06-25","164","Serum","Potassium (mmol/L)","4.95024381375327","3.5","5"
"01-004","01","Site 01","42","F","Hispanic","Placebo","2015-01-13","Y","2015-03-03","50","2016-01-06","359","N","Y","Visit 3","3","2015-06-25","164","Serum","Sodium (mmol/L)","","136","145"
"01-004","01","Site 01","42","F","Hispanic","Placebo","2015-01-13","Y","2015-03-03","50","2016-01-06","359","N","Y","Visit 3","3","2015-06-25","164","Serum","Total Bilirubin (µmol/L)","0","5.1","20.5"
"01-004","01","Site 01","42","F","Hispanic","Placebo","2015-01-13","Y","2015-03-03","50","2016-01-06","359","N","Y","Visit 4","4","2015-08-18","218","Blood","Platelet count (x 109/L)","238.308943559446","150","350"
"01-004","01","Site 01","42","F","Hispanic","Placebo","2015-01-13","Y","2015-03-03","50","2016-01-06","359","N","Y","Visit 4","4","2015-08-18","218","Blood","RBC count (x 1012 cells/L)","5.27347529713308","4.2","5.9"
"01-004","01","Site 01","42","F","Hispanic","Placebo","2015-01-13","Y","2015-03-03","50","2016-01-06","359","N","Y","Visit 4","4","2015-08-18","218","Blood","WBC count (x 109 cells/L)","7.11957909796345","4.5","11"
"01-004","01","Site 01","42","F","Hispanic","Placebo","2015-01-13","Y","2015-03-03","50","2016-01-06","359","N","Y","Visit 4","4","2015-08-18","218","Serum","Albumin (g/L)","53.1240629475315","35","55"
"01-004","01","Site 01","42","F","Hispanic","Placebo","2015-01-13","Y","2015-03-03","50","2016-01-06","359","N","Y","Visit 4","4","2015-08-18","218","Serum","Alkaline phosphatase (ALP) (µkat/L)","1.21455825598498","0.5","1.5"
"01-004","01","Site 01","42","F","Hispanic","Placebo","2015-01-13","Y","2015-03-03","50","2016-01-06","359","N","Y","Visit 4","4","2015-08-18","218","Serum","Aminotransferase, alanine (ALT) (pkat/L)","0.126134711620434","0","0.58"
"01-004","01","Site 01","42","F","Hispanic","Placebo","2015-01-13","Y","2015-03-03","50","2016-01-06","359","N","Y","Visit 4","4","2015-08-18","218","Serum","Aminotransferase, aspartate (AST) (pkat/L)","0","0","0.58"
"01-004","01","Site 01","42","F","Hispanic","Placebo","2015-01-13","Y","2015-03-03","50","2016-01-06","359","N","Y","Visit 4","4","2015-08-18","218","Serum","Calcium (mmol/L)","2.58673567408203","2.2","2.6"
"01-004","01","Site 01","42","F","Hispanic","Placebo","2015-01-13","Y","2015-03-03","50","2016-01-06","359","N","Y","Visit 4","4","2015-08-18","218","Serum","Chloride (mmol/L)","99.8579317038002","98","106"
"01-004","01","Site 01","42","F","Hispanic","Placebo","2015-01-13","Y","2015-03-03","50","2016-01-06","359","N","Y","Visit 4","4","2015-08-18","218","Serum","Creatinine (µmol/L)","48.8452337575893","61.9","115"
"01-004","01","Site 01","42","F","Hispanic","Placebo","2015-01-13","Y","2015-03-03","50","2016-01-06","359","N","Y","Visit 4","4","2015-08-18","218","Serum","Direct Bilirubin (µmol/L)","0","0","5.1"
"01-004","01","Site 01","42","F","Hispanic","Placebo","2015-01-13","Y","2015-03-03","50","2016-01-06","359","N","Y","Visit 4","4","2015-08-18","218","Serum","IgE (mg/L)","0.251759179138089","0.1","0.4"
"01-004","01","Site 01","42","F","Hispanic","Placebo","2015-01-13","Y","2015-03-03","50","2016-01-06","359","N","Y","Visit 4","4","2015-08-18","218","Serum","Magnesium (mmol/L)","0.736836695189363","0.62","0.99"
"01-004","01","Site 01","42","F","Hispanic","Placebo","2015-01-13","Y","2015-03-03","50","2016-01-06","359","N","Y","Visit 4","4","2015-08-18","218","Serum","Potassium (mmol/L)","3.64217854868668","3.5","5"
"01-004","01","Site 01","42","F","Hispanic","Placebo","2015-01-13","Y","2015-03-03","50","2016-01-06","359","N","Y","Visit 4","4","2015-08-18","218","Serum","Sodium (mmol/L)","141.284406112428","136","145"
"01-004","01","Site 01","42","F","Hispanic","Placebo","2015-01-13","Y","2015-03-03","50","2016-01-06","359","N","Y","Visit 4","4","2015-08-18","218","Serum","Total Bilirubin (µmol/L)","","5.1","20.5"
"01-004","01","Site 01","42","F","Hispanic","Placebo","2015-01-13","Y","2015-03-03","50","2016-01-06","359","N","Y","Visit 5","5","2015-10-19","280","Blood","Platelet count (x 109/L)","0","150","350"
"01-004","01","Site 01","42","F","Hispanic","Placebo","2015-01-13","Y","2015-03-03","50","2016-01-06","359","N","Y","Visit 5","5","2015-10-19","280","Blood","RBC count (x 1012 cells/L)","5.21200648761923","4.2","5.9"
"01-004","01","Site 01","42","F","Hispanic","Placebo","2015-01-13","Y","2015-03-03","50","2016-01-06","359","N","Y","Visit 5","5","2015-10-19","280","Blood","WBC count (x 109 cells/L)","","4.5","11"
"01-004","01","Site 01","42","F","Hispanic","Placebo","2015-01-13","Y","2015-03-03","50","2016-01-06","359","N","Y","Visit 5","5","2015-10-19","280","Serum","Albumin (g/L)","54.3894945578406","35","55"
"01-004","01","Site 01","42","F","Hispanic","Placebo","2015-01-13","Y","2015-03-03","50","2016-01-06","359","N","Y","Visit 5","5","2015-10-19","280","Serum","Alkaline phosphatase (ALP) (µkat/L)","1.65709631044265","0.5","1.5"
"01-004","01","Site 01","42","F","Hispanic","Placebo","2015-01-13","Y","2015-03-03","50","2016-01-06","359","N","Y","Visit 5","5","2015-10-19","280","Serum","Aminotransferase, alanine (ALT) (pkat/L)","0.514565723637921","0","0.58"
"01-004","01","Site 01","42","F","Hispanic","Placebo","2015-01-13","Y","2015-03-03","50","2016-01-06","359","N","Y","Visit 5","5","2015-10-19","280","Serum","Aminotransferase, aspartate (AST) (pkat/L)","0.477310876025826","0","0.58"
"01-004","01","Site 01","42","F","Hispanic","Placebo","2015-01-13","Y","2015-03-03","50","2016-01-06","359","N","Y","Visit 5","5","2015-10-19","280","Serum","Calcium (mmol/L)","2.16582843973285","2.2","2.6"
"01-004","01","Site 01","42","F","Hispanic","Placebo","2015-01-13","Y","2015-03-03","50","2016-01-06","359","N","Y","Visit 5","5","2015-10-19","280","Serum","Chloride (mmol/L)","103.843597691495","98","106"
"01-004","01","Site 01","42","F","Hispanic","Placebo","2015-01-13","Y","2015-03-03","50","2016-01-06","359","N","Y","Visit 5","5","2015-10-19","280","Serum","Creatinine (µmol/L)","126.901555059458","61.9","115"
"01-004","01","Site 01","42","F","Hispanic","Placebo","2015-01-13","Y","2015-03-03","50","2016-01-06","359","N","Y","Visit 5","5","2015-10-19","280","Serum","Direct Bilirubin (µmol/L)","4.207983736782","0","5.1"
"01-004","01","Site 01","42","F","Hispanic","Placebo","2015-01-13","Y","2015-03-03","50","2016-01-06","359","N","Y","Visit 5","5","2015-10-19","280","Serum","IgE (mg/L)","0.353729218975822","0.1","0.4"
"01-004","01","Site 01","42","F","Hispanic","Placebo","2015-01-13","Y","2015-03-03","50","2016-01-06","359","N","Y","Visit 5","5","2015-10-19","280","Serum","Magnesium (mmol/L)","1.02915809609698","0.62","0.99"
"01-004","01","Site 01","42","F","Hispanic","Placebo","2015-01-13","Y","2015-03-03","50","2016-01-06","359","N","Y","Visit 5","5","2015-10-19","280","Serum","Potassium (mmol/L)","","3.5","5"
"01-004","01","Site 01","42","F","Hispanic","Placebo","2015-01-13","Y","2015-03-03","50","2016-01-06","359","N","Y","Visit 5","5","2015-10-19","280","Serum","Sodium (mmol/L)","137.135510386073","136","145"
"01-004","01","Site 01","42","F","Hispanic","Placebo","2015-01-13","Y","2015-03-03","50","2016-01-06","359","N","Y","Visit 5","5","2015-10-19","280","Serum","Total Bilirubin (µmol/L)","8.9710881163771","5.1","20.5"
"01-004","01","Site 01","42","F","Hispanic","Placebo","2015-01-13","Y","2015-03-03","50","2016-01-06","359","N","Y","Visit 6","6","2015-12-20","342","Blood","Platelet count (x 109/L)","216.284553912321","150","350"
"01-004","01","Site 01","42","F","Hispanic","Placebo","2015-01-13","Y","2015-03-03","50","2016-01-06","359","N","Y","Visit 6","6","2015-12-20","342","Blood","RBC count (x 1012 cells/L)","","4.2","5.9"
"01-004","01","Site 01","42","F","Hispanic","Placebo","2015-01-13","Y","2015-03-03","50","2016-01-06","359","N","Y","Visit 6","6","2015-12-20","342","Blood","WBC count (x 109 cells/L)","6.13342148543612","4.5","11"
"01-004","01","Site 01","42","F","Hispanic","Placebo","2015-01-13","Y","2015-03-03","50","2016-01-06","359","N","Y","Visit 6","6","2015-12-20","342","Serum","Albumin (g/L)","36.9590520130821","35","55"
"01-004","01","Site 01","42","F","Hispanic","Placebo","2015-01-13","Y","2015-03-03","50","2016-01-06","359","N","Y","Visit 6","6","2015-12-20","342","Serum","Alkaline phosphatase (ALP) (µkat/L)","0.948999764057629","0.5","1.5"
"01-004","01","Site 01","42","F","Hispanic","Placebo","2015-01-13","Y","2015-03-03","50","2016-01-06","359","N","Y","Visit 6","6","2015-12-20","342","Serum","Aminotransferase, alanine (ALT) (pkat/L)","","0","0.58"
"01-004","01","Site 01","42","F","Hispanic","Placebo","2015-01-13","Y","2015-03-03","50","2016-01-06","359","N","Y","Visit 6","6","2015-12-20","342","Serum","Aminotransferase, aspartate (AST) (pkat/L)","0","0","0.58"
"01-004","01","Site 01","42","F","Hispanic","Placebo","2015-01-13","Y","2015-03-03","50","2016-01-06","359","N","Y","Visit 6","6","2015-12-20","342","Serum","Calcium (mmol/L)","","2.2","2.6"
"01-004","01","Site 01","42","F","Hispanic","Placebo","2015-01-13","Y","2015-03-03","50","2016-01-06","359","N","Y","Visit 6","6","2015-12-20","342","Serum","Chloride (mmol/L)","97.6123935588966","98","106"
"01-004","01","Site 01","42","F","Hispanic","Placebo","2015-01-13","Y","2015-03-03","50","2016-01-06","359","N","Y","Visit 6","6","2015-12-20","342","Serum","Creatinine (µmol/L)","90.5009083217971","61.9","115"
"01-004","01","Site 01","42","F","Hispanic","Placebo","2015-01-13","Y","2015-03-03","50","2016-01-06","359","N","Y","Visit 6","6","2015-12-20","342","Serum","Direct Bilirubin (µmol/L)","4.3127196495773","0","5.1"
"01-004","01","Site 01","42","F","Hispanic","Placebo","2015-01-13","Y","2015-03-03","50","2016-01-06","359","N","Y","Visit 6","6","2015-12-20","342","Serum","IgE (mg/L)","0.276693683976999","0.1","0.4"
"01-004","01","Site 01","42","F","Hispanic","Placebo","2015-01-13","Y","2015-03-03","50","2016-01-06","359","N","Y","Visit 6","6","2015-12-20","342","Serum","Magnesium (mmol/L)","","0.62","0.99"
"01-004","01","Site 01","42","F","Hispanic","Placebo","2015-01-13","Y","2015-03-03","50","2016-01-06","359","N","Y","Visit 6","6","2015-12-20","342","Serum","Potassium (mmol/L)","4.33373649956794","3.5","5"
"01-004","01","Site 01","42","F","Hispanic","Placebo","2015-01-13","Y","2015-03-03","50","2016-01-06","359","N","Y","Visit 6","6","2015-12-20","342","Serum","Sodium (mmol/L)","150.349002965674","136","145"
"01-004","01","Site 01","42","F","Hispanic","Placebo","2015-01-13","Y","2015-03-03","50","2016-01-06","359","N","Y","Visit 6","6","2015-12-20","342","Serum","Total Bilirubin (µmol/L)","0","5.1","20.5"
"01-004","01","Site 01","42","F","Hispanic","Placebo","2015-01-13","Y","2015-03-03","50","2016-01-06","359","N","Y","End of Study","7","2016-01-06","359","Blood","Platelet count (x 109/L)","258.512890626098","150","350"
"01-004","01","Site 01","42","F","Hispanic","Placebo","2015-01-13","Y","2015-03-03","50","2016-01-06","359","N","Y","End of Study","7","2016-01-06","359","Blood","RBC count (x 1012 cells/L)","3.69685517204265","4.2","5.9"
"01-004","01","Site 01","42","F","Hispanic","Placebo","2015-01-13","Y","2015-03-03","50","2016-01-06","359","N","Y","End of Study","7","2016-01-06","359","Blood","WBC count (x 109 cells/L)","0","4.5","11"
"01-004","01","Site 01","42","F","Hispanic","Placebo","2015-01-13","Y","2015-03-03","50","2016-01-06","359","N","Y","End of Study","7","2016-01-06","359","Serum","Albumin (g/L)","46.6592031478935","35","55"
"01-004","01","Site 01","42","F","Hispanic","Placebo","2015-01-13","Y","2015-03-03","50","2016-01-06","359","N","Y","End of Study","7","2016-01-06","359","Serum","Alkaline phosphatase (ALP) (µkat/L)","0.464565573575409","0.5","1.5"
"01-004","01","Site 01","42","F","Hispanic","Placebo","2015-01-13","Y","2015-03-03","50","2016-01-06","359","N","Y","End of Study","7","2016-01-06","359","Serum","Aminotransferase, alanine (ALT) (pkat/L)","0.564622629906892","0","0.58"
"01-004","01","Site 01","42","F","Hispanic","Placebo","2015-01-13","Y","2015-03-03","50","2016-01-06","359","N","Y","End of Study","7","2016-01-06","359","Serum","Aminotransferase, aspartate (AST) (pkat/L)","0.422034523254364","0","0.58"
"01-004","01","Site 01","42","F","Hispanic","Placebo","2015-01-13","Y","2015-03-03","50","2016-01-06","359","N","Y","End of Study","7","2016-01-06","359","Serum","Calcium (mmol/L)","2.42264812295553","2.2","2.6"
"01-004","01","Site 01","42","F","Hispanic","Placebo","2015-01-13","Y","2015-03-03","50","2016-01-06","359","N","Y","End of Study","7","2016-01-06","359","Serum","Chloride (mmol/L)","","98","106"
"01-004","01","Site 01","42","F","Hispanic","Placebo","2015-01-13","Y","2015-03-03","50","2016-01-06","359","N","Y","End of Study","7","2016-01-06","359","Serum","Creatinine (µmol/L)","86.8537171877042","61.9","115"
"01-004","01","Site 01","42","F","Hispanic","Placebo","2015-01-13","Y","2015-03-03","50","2016-01-06","359","N","Y","End of Study","7","2016-01-06","359","Serum","Direct Bilirubin (µmol/L)","","0","5.1"
"01-004","01","Site 01","42","F","Hispanic","Placebo","2015-01-13","Y","2015-03-03","50","2016-01-06","359","N","Y","End of Study","7","2016-01-06","359","Serum","IgE (mg/L)","","0.1","0.4"
"01-004","01","Site 01","42","F","Hispanic","Placebo","2015-01-13","Y","2015-03-03","50","2016-01-06","359","N","Y","End of Study","7","2016-01-06","359","Serum","Magnesium (mmol/L)","1.26566947359882","0.62","0.99"
"01-004","01","Site 01","42","F","Hispanic","Placebo","2015-01-13","Y","2015-03-03","50","2016-01-06","359","N","Y","End of Study","7","2016-01-06","359","Serum","Potassium (mmol/L)","3.62645006890625","3.5","5"
"01-004","01","Site 01","42","F","Hispanic","Placebo","2015-01-13","Y","2015-03-03","50","2016-01-06","359","N","Y","End of Study","7","2016-01-06","359","Serum","Sodium (mmol/L)","133.289752426752","136","145"
"01-004","01","Site 01","42","F","Hispanic","Placebo","2015-01-13","Y","2015-03-03","50","2016-01-06","359","N","Y","End of Study","7","2016-01-06","359","Serum","Total Bilirubin (µmol/L)","11.7745709765117","5.1","20.5"
"01-005","01","Site 01","30","M","White","Treatment B","2015-12-27","Y","2016-02-16","52","2017-01-03","374","Y","N","Screening","0","2015-12-27","1","Blood","Platelet count (x 109/L)","431.470291242682","150","350"
"01-005","01","Site 01","30","M","White","Treatment B","2015-12-27","Y","2016-02-16","52","2017-01-03","374","Y","N","Screening","0","2015-12-27","1","Blood","RBC count (x 1012 cells/L)","5.89380830215865","4.2","5.9"
"01-005","01","Site 01","30","M","White","Treatment B","2015-12-27","Y","2016-02-16","52","2017-01-03","374","Y","N","Screening","0","2015-12-27","1","Blood","WBC count (x 109 cells/L)","9.87374072117297","4.5","11"
"01-005","01","Site 01","30","M","White","Treatment B","2015-12-27","Y","2016-02-16","52","2017-01-03","374","Y","N","Screening","0","2015-12-27","1","Serum","Albumin (g/L)","31.9224806882721","35","55"
"01-005","01","Site 01","30","M","White","Treatment B","2015-12-27","Y","2016-02-16","52","2017-01-03","374","Y","N","Screening","0","2015-12-27","1","Serum","Alkaline phosphatase (ALP) (µkat/L)","","0.5","1.5"
"01-005","01","Site 01","30","M","White","Treatment B","2015-12-27","Y","2016-02-16","52","2017-01-03","374","Y","N","Screening","0","2015-12-27","1","Serum","Aminotransferase, alanine (ALT) (pkat/L)","0","0","0.58"
"01-005","01","Site 01","30","M","White","Treatment B","2015-12-27","Y","2016-02-16","52","2017-01-03","374","Y","N","Screening","0","2015-12-27","1","Serum","Aminotransferase, aspartate (AST) (pkat/L)","","0","0.58"
"01-005","01","Site 01","30","M","White","Treatment B","2015-12-27","Y","2016-02-16","52","2017-01-03","374","Y","N","Screening","0","2015-12-27","1","Serum","Calcium (mmol/L)","2.4785428667719","2.2","2.6"
"01-005","01","Site 01","30","M","White","Treatment B","2015-12-27","Y","2016-02-16","52","2017-01-03","374","Y","N","Screening","0","2015-12-27","1","Serum","Chloride (mmol/L)","103.70826645931","98","106"
"01-005","01","Site 01","30","M","White","Treatment B","2015-12-27","Y","2016-02-16","52","2017-01-03","374","Y","N","Screening","0","2015-12-27","1","Serum","Creatinine (µmol/L)","99.1317793847082","61.9","115"
"01-005","01","Site 01","30","M","White","Treatment B","2015-12-27","Y","2016-02-16","52","2017-01-03","374","Y","N","Screening","0","2015-12-27","1","Serum","Direct Bilirubin (µmol/L)","1.16626912331543","0","5.1"
"01-005","01","Site 01","30","M","White","Treatment B","2015-12-27","Y","2016-02-16","52","2017-01-03","374","Y","N","Screening","0","2015-12-27","1","Serum","IgE (mg/L)","0.0184098050722344","0.1","0.4"
"01-005","01","Site 01","30","M","White","Treatment B","2015-12-27","Y","2016-02-16","52","2017-01-03","374","Y","N","Screening","0","2015-12-27","1","Serum","Magnesium (mmol/L)","0.966975364660916","0.62","0.99"
"01-005","01","Site 01","30","M","White","Treatment B","2015-12-27","Y","2016-02-16","52","2017-01-03","374","Y","N","Screening","0","2015-12-27","1","Serum","Potassium (mmol/L)","3.8832282243051","3.5","5"
"01-005","01","Site 01","30","M","White","Treatment B","2015-12-27","Y","2016-02-16","52","2017-01-03","374","Y","N","Screening","0","2015-12-27","1","Serum","Sodium (mmol/L)","145.515080234843","136","145"
"01-005","01","Site 01","30","M","White","Treatment B","2015-12-27","Y","2016-02-16","52","2017-01-03","374","Y","N","Screening","0","2015-12-27","1","Serum","Total Bilirubin (µmol/L)","12.020172219768","5.1","20.5"
"01-005","01","Site 01","30","M","White","Treatment B","2015-12-27","Y","2016-02-16","52","2017-01-03","374","Y","N","Visit 1","1","2016-02-16","52","Blood","Platelet count (x 109/L)","212.212417297338","150","350"
"01-005","01","Site 01","30","M","White","Treatment B","2015-12-27","Y","2016-02-16","52","2017-01-03","374","Y","N","Visit 1","1","2016-02-16","52","Blood","RBC count (x 1012 cells/L)","6.77643184224803","4.2","5.9"
"01-005","01","Site 01","30","M","White","Treatment B","2015-12-27","Y","2016-02-16","52","2017-01-03","374","Y","N","Visit 1","1","2016-02-16","52","Blood","WBC count (x 109 cells/L)","0","4.5","11"
"01-005","01","Site 01","30","M","White","Treatment B","2015-12-27","Y","2016-02-16","52","2017-01-03","374","Y","N","Visit 1","1","2016-02-16","52","Serum","Albumin (g/L)","62.7704896671837","35","55"
"01-005","01","Site 01","30","M","White","Treatment B","2015-12-27","Y","2016-02-16","52","2017-01-03","374","Y","N","Visit 1","1","2016-02-16","52","Serum","Alkaline phosphatase (ALP) (µkat/L)","1.1291750752376","0.5","1.5"
"01-005","01","Site 01","30","M","White","Treatment B","2015-12-27","Y","2016-02-16","52","2017-01-03","374","Y","N","Visit 1","1","2016-02-16","52","Serum","Aminotransferase, alanine (ALT) (pkat/L)","0.0529644795664716","0","0.58"
"01-005","01","Site 01","30","M","White","Treatment B","2015-12-27","Y","2016-02-16","52","2017-01-03","374","Y","N","Visit 1","1","2016-02-16","52","Serum","Aminotransferase, aspartate (AST) (pkat/L)","0.212785525067134","0","0.58"
"01-005","01","Site 01","30","M","White","Treatment B","2015-12-27","Y","2016-02-16","52","2017-01-03","374","Y","N","Visit 1","1","2016-02-16","52","Serum","Calcium (mmol/L)","2.48938014653804","2.2","2.6"
"01-005","01","Site 01","30","M","White","Treatment B","2015-12-27","Y","2016-02-16","52","2017-01-03","374","Y","N","Visit 1","1","2016-02-16","52","Serum","Chloride (mmol/L)","","98","106"
"01-005","01","Site 01","30","M","White","Treatment B","2015-12-27","Y","2016-02-16","52","2017-01-03","374","Y","N","Visit 1","1","2016-02-16","52","Serum","Creatinine (µmol/L)","156.562788692177","61.9","115"
"01-005","01","Site 01","30","M","White","Treatment B","2015-12-27","Y","2016-02-16","52","2017-01-03","374","Y","N","Visit 1","1","2016-02-16","52","Serum","Direct Bilirubin (µmol/L)","7.93967017443995","0","5.1"
"01-005","01","Site 01","30","M","White","Treatment B","2015-12-27","Y","2016-02-16","52","2017-01-03","374","Y","N","Visit 1","1","2016-02-16","52","Serum","IgE (mg/L)","0.319070861636469","0.1","0.4"
"01-005","01","Site 01","30","M","White","Treatment B","2015-12-27","Y","2016-02-16","52","2017-01-03","374","Y","N","Visit 1","1","2016-02-16","52","Serum","Magnesium (mmol/L)","0.62474631601116","0.62","0.99"
"01-005","01","Site 01","30","M","White","Treatment B","2015-12-27","Y","2016-02-16","52","2017-01-03","374","Y","N","Visit 1","1","2016-02-16","52","Serum","Potassium (mmol/L)","5.05073688520751","3.5","5"
"01-005","01","Site 01","30","M","White","Treatment B","2015-12-27","Y","2016-02-16","52","2017-01-03","374","Y","N","Visit 1","1","2016-02-16","52","Serum","Sodium (mmol/L)","142.207668825573","136","145"
"01-005","01","Site 01","30","M","White","Treatment B","2015-12-27","Y","2016-02-16","52","2017-01-03","374","Y","N","Visit 1","1","2016-02-16","52","Serum","Total Bilirubin (µmol/L)","9.958007593502","5.1","20.5"
"01-005","01","Site 01","30","M","White","Treatment B","2015-12-27","Y","2016-02-16","52","2017-01-03","374","Y","N","Visit 2","2","2016-04-09","105","Blood","Platelet count (x 109/L)","193.264743519251","150","350"
"01-005","01","Site 01","30","M","White","Treatment B","2015-12-27","Y","2016-02-16","52","2017-01-03","374","Y","N","Visit 2","2","2016-04-09","105","Blood","RBC count (x 1012 cells/L)","5.40256148727941","4.2","5.9"
"01-005","01","Site 01","30","M","White","Treatment B","2015-12-27","Y","2016-02-16","52","2017-01-03","374","Y","N","Visit 2","2","2016-04-09","105","Blood","WBC count (x 109 cells/L)","7.41331229739558","4.5","11"
"01-005","01","Site 01","30","M","White","Treatment B","2015-12-27","Y","2016-02-16","52","2017-01-03","374","Y","N","Visit 2","2","2016-04-09","105","Serum","Albumin (g/L)","41.770123326536","35","55"
"01-005","01","Site 01","30","M","White","Treatment B","2015-12-27","Y","2016-02-16","52","2017-01-03","374","Y","N","Visit 2","2","2016-04-09","105","Serum","Alkaline phosphatase (ALP) (µkat/L)","0.743069707664586","0.5","1.5"
"01-005","01","Site 01","30","M","White","Treatment B","2015-12-27","Y","2016-02-16","52","2017-01-03","374","Y","N","Visit 2","2","2016-04-09","105","Serum","Aminotransferase, alanine (ALT) (pkat/L)","0","0","0.58"
"01-005","01","Site 01","30","M","White","Treatment B","2015-12-27","Y","2016-02-16","52","2017-01-03","374","Y","N","Visit 2","2","2016-04-09","105","Serum","Aminotransferase, aspartate (AST) (pkat/L)","0.864532231650458","0","0.58"
"01-005","01","Site 01","30","M","White","Treatment B","2015-12-27","Y","2016-02-16","52","2017-01-03","374","Y","N","Visit 2","2","2016-04-09","105","Serum","Calcium (mmol/L)","2.5264238637118","2.2","2.6"
"01-005","01","Site 01","30","M","White","Treatment B","2015-12-27","Y","2016-02-16","52","2017-01-03","374","Y","N","Visit 2","2","2016-04-09","105","Serum","Chloride (mmol/L)","102.894195951989","98","106"
"01-005","01","Site 01","30","M","White","Treatment B","2015-12-27","Y","2016-02-16","52","2017-01-03","374","Y","N","Visit 2","2","2016-04-09","105","Serum","Creatinine (µmol/L)","107.717021037046","61.9","115"
"01-005","01","Site 01","30","M","White","Treatment B","2015-12-27","Y","2016-02-16","52","2017-01-03","374","Y","N","Visit 2","2","2016-04-09","105","Serum","Direct Bilirubin (µmol/L)","2.52923831111465","0","5.1"
"01-005","01","Site 01","30","M","White","Treatment B","2015-12-27","Y","2016-02-16","52","2017-01-03","374","Y","N","Visit 2","2","2016-04-09","105","Serum","IgE (mg/L)","0.0892024782080367","0.1","0.4"
"01-005","01","Site 01","30","M","White","Treatment B","2015-12-27","Y","2016-02-16","52","2017-01-03","374","Y","N","Visit 2","2","2016-04-09","105","Serum","Magnesium (mmol/L)","0.749093467854069","0.62","0.99"
"01-005","01","Site 01","30","M","White","Treatment B","2015-12-27","Y","2016-02-16","52","2017-01-03","374","Y","N","Visit 2","2","2016-04-09","105","Serum","Potassium (mmol/L)","4.16148502271027","3.5","5"
"01-005","01","Site 01","30","M","White","Treatment B","2015-12-27","Y","2016-02-16","52","2017-01-03","374","Y","N","Visit 2","2","2016-04-09","105","Serum","Sodium (mmol/L)","146.818505455539","136","145"
"01-005","01","Site 01","30","M","White","Treatment B","2015-12-27","Y","2016-02-16","52","2017-01-03","374","Y","N","Visit 2","2","2016-04-09","105","Serum","Total Bilirubin (µmol/L)","10.1893285057101","5.1","20.5"
"01-005","01","Site 01","30","M","White","Treatment B","2015-12-27","Y","2016-02-16","52","2017-01-03","374","Y","N","Unscheduled 2.1","2.1","2016-04-17","113","Blood","Platelet count (x 109/L)","","150","350"
"01-005","01","Site 01","30","M","White","Treatment B","2015-12-27","Y","2016-02-16","52","2017-01-03","374","Y","N","Unscheduled 2.1","2.1","2016-04-17","113","Blood","RBC count (x 1012 cells/L)","","4.2","5.9"
"01-005","01","Site 01","30","M","White","Treatment B","2015-12-27","Y","2016-02-16","52","2017-01-03","374","Y","N","Unscheduled 2.1","2.1","2016-04-17","113","Blood","WBC count (x 109 cells/L)","1.1053062983609","4.5","11"
"01-005","01","Site 01","30","M","White","Treatment B","2015-12-27","Y","2016-02-16","52","2017-01-03","374","Y","N","Unscheduled 2.1","2.1","2016-04-17","113","Serum","Albumin (g/L)","34.0695696820422","35","55"
"01-005","01","Site 01","30","M","White","Treatment B","2015-12-27","Y","2016-02-16","52","2017-01-03","374","Y","N","Unscheduled 2.1","2.1","2016-04-17","113","Serum","Alkaline phosphatase (ALP) (µkat/L)","0.883680297467633","0.5","1.5"
"01-005","01","Site 01","30","M","White","Treatment B","2015-12-27","Y","2016-02-16","52","2017-01-03","374","Y","N","Unscheduled 2.1","2.1","2016-04-17","113","Serum","Aminotransferase, alanine (ALT) (pkat/L)","","0","0.58"
"01-005","01","Site 01","30","M","White","Treatment B","2015-12-27","Y","2016-02-16","52","2017-01-03","374","Y","N","Unscheduled 2.1","2.1","2016-04-17","113","Serum","Aminotransferase, aspartate (AST) (pkat/L)","0","0","0.58"
"01-005","01","Site 01","30","M","White","Treatment B","2015-12-27","Y","2016-02-16","52","2017-01-03","374","Y","N","Unscheduled 2.1","2.1","2016-04-17","113","Serum","Calcium (mmol/L)","2.69992165386756","2.2","2.6"
"01-005","01","Site 01","30","M","White","Treatment B","2015-12-27","Y","2016-02-16","52","2017-01-03","374","Y","N","Unscheduled 2.1","2.1","2016-04-17","113","Serum","Chloride (mmol/L)","104.785726155518","98","106"
"01-005","01","Site 01","30","M","White","Treatment B","2015-12-27","Y","2016-02-16","52","2017-01-03","374","Y","N","Unscheduled 2.1","2.1","2016-04-17","113","Serum","Creatinine (µmol/L)","104.926316816877","61.9","115"
"01-005","01","Site 01","30","M","White","Treatment B","2015-12-27","Y","2016-02-16","52","2017-01-03","374","Y","N","Unscheduled 2.1","2.1","2016-04-17","113","Serum","Direct Bilirubin (µmol/L)","2.06066124391447","0","5.1"
"01-005","01","Site 01","30","M","White","Treatment B","2015-12-27","Y","2016-02-16","52","2017-01-03","374","Y","N","Unscheduled 2.1","2.1","2016-04-17","113","Serum","IgE (mg/L)","0.242184965149434","0.1","0.4"
"01-005","01","Site 01","30","M","White","Treatment B","2015-12-27","Y","2016-02-16","52","2017-01-03","374","Y","N","Unscheduled 2.1","2.1","2016-04-17","113","Serum","Magnesium (mmol/L)","0.693149750412546","0.62","0.99"
"01-005","01","Site 01","30","M","White","Treatment B","2015-12-27","Y","2016-02-16","52","2017-01-03","374","Y","N","Unscheduled 2.1","2.1","2016-04-17","113","Serum","Potassium (mmol/L)","4.19791892847221","3.5","5"
"01-005","01","Site 01","30","M","White","Treatment B","2015-12-27","Y","2016-02-16","52","2017-01-03","374","Y","N","Unscheduled 2.1","2.1","2016-04-17","113","Serum","Sodium (mmol/L)","138.764497975025","136","145"
"01-005","01","Site 01","30","M","White","Treatment B","2015-12-27","Y","2016-02-16","52","2017-01-03","374","Y","N","Unscheduled 2.1","2.1","2016-04-17","113","Serum","Total Bilirubin (µmol/L)","9.08531050907173","5.1","20.5"
"01-005","01","Site 01","30","M","White","Treatment B","2015-12-27","Y","2016-02-16","52","2017-01-03","374","Y","N","Visit 3","3","2016-06-08","165","Blood","Platelet count (x 109/L)","410.713867470723","150","350"
"01-005","01","Site 01","30","M","White","Treatment B","2015-12-27","Y","2016-02-16","52","2017-01-03","374","Y","N","Visit 3","3","2016-06-08","165","Blood","RBC count (x 1012 cells/L)","5.86360213775319","4.2","5.9"
"01-005","01","Site 01","30","M","White","Treatment B","2015-12-27","Y","2016-02-16","52","2017-01-03","374","Y","N","Visit 3","3","2016-06-08","165","Blood","WBC count (x 109 cells/L)","6.80849666657397","4.5","11"
"01-005","01","Site 01","30","M","White","Treatment B","2015-12-27","Y","2016-02-16","52","2017-01-03","374","Y","N","Visit 3","3","2016-06-08","165","Serum","Albumin (g/L)","67.7539100597369","35","55"
"01-005","01","Site 01","30","M","White","Treatment B","2015-12-27","Y","2016-02-16","52","2017-01-03","374","Y","N","Visit 3","3","2016-06-08","165","Serum","Alkaline phosphatase (ALP) (µkat/L)","0.570596470184501","0.5","1.5"
"01-005","01","Site 01","30","M","White","Treatment B","2015-12-27","Y","2016-02-16","52","2017-01-03","374","Y","N","Visit 3","3","2016-06-08","165","Serum","Aminotransferase, alanine (ALT) (pkat/L)","0.385025255383159","0","0.58"
"01-005","01","Site 01","30","M","White","Treatment B","2015-12-27","Y","2016-02-16","52","2017-01-03","374","Y","N","Visit 3","3","2016-06-08","165","Serum","Aminotransferase, aspartate (AST) (pkat/L)","0.420814253598491","0","0.58"
"01-005","01","Site 01","30","M","White","Treatment B","2015-12-27","Y","2016-02-16","52","2017-01-03","374","Y","N","Visit 3","3","2016-06-08","165","Serum","Calcium (mmol/L)","2.16916295930105","2.2","2.6"
"01-005","01","Site 01","30","M","White","Treatment B","2015-12-27","Y","2016-02-16","52","2017-01-03","374","Y","N","Visit 3","3","2016-06-08","165","Serum","Chloride (mmol/L)","105.391455457908","98","106"
"01-005","01","Site 01","30","M","White","Treatment B","2015-12-27","Y","2016-02-16","52","2017-01-03","374","Y","N","Visit 3","3","2016-06-08","165","Serum","Creatinine (µmol/L)","77.822806823506","61.9","115"
"01-005","01","Site 01","30","M","White","Treatment B","2015-12-27","Y","2016-02-16","52","2017-01-03","374","Y","N","Visit 3","3","2016-06-08","165","Serum","Direct Bilirubin (µmol/L)","6.95300861549477","0","5.1"
"01-005","01","Site 01","30","M","White","Treatment B","2015-12-27","Y","2016-02-16","52","2017-01-03","374","Y","N","Visit 3","3","2016-06-08","165","Serum","IgE (mg/L)","0.207513431059913","0.1","0.4"
"01-005","01","Site 01","30","M","White","Treatment B","2015-12-27","Y","2016-02-16","52","2017-01-03","374","Y","N","Visit 3","3","2016-06-08","165","Serum","Magnesium (mmol/L)","0.884502726300536","0.62","0.99"
"01-005","01","Site 01","30","M","White","Treatment B","2015-12-27","Y","2016-02-16","52","2017-01-03","374","Y","N","Visit 3","3","2016-06-08","165","Serum","Potassium (mmol/L)","3.98787386785207","3.5","5"
"01-005","01","Site 01","30","M","White","Treatment B","2015-12-27","Y","2016-02-16","52","2017-01-03","374","Y","N","Visit 3","3","2016-06-08","165","Serum","Sodium (mmol/L)","","136","145"
"01-005","01","Site 01","30","M","White","Treatment B","2015-12-27","Y","2016-02-16","52","2017-01-03","374","Y","N","Visit 3","3","2016-06-08","165","Serum","Total Bilirubin (µmol/L)","16.2720728083717","5.1","20.5"
"01-005","01","Site 01","30","M","White","Treatment B","2015-12-27","Y","2016-02-16","52","2017-01-03","374","Y","N","Visit 4","4","2016-07-31","218","Blood","Platelet count (x 109/L)","101.902431807224","150","350"
"01-005","01","Site 01","30","M","White","Treatment B","2015-12-27","Y","2016-02-16","52","2017-01-03","374","Y","N","Visit 4","4","2016-07-31","218","Blood","RBC count (x 1012 cells/L)","5.73475761065811","4.2","5.9"
"01-005","01","Site 01","30","M","White","Treatment B","2015-12-27","Y","2016-02-16","52","2017-01-03","374","Y","N","Visit 4","4","2016-07-31","218","Blood","WBC count (x 109 cells/L)","8.65689839579431","4.5","11"
"01-005","01","Site 01","30","M","White","Treatment B","2015-12-27","Y","2016-02-16","52","2017-01-03","374","Y","N","Visit 4","4","2016-07-31","218","Serum","Albumin (g/L)","44.2679976221984","35","55"
"01-005","01","Site 01","30","M","White","Treatment B","2015-12-27","Y","2016-02-16","52","2017-01-03","374","Y","N","Visit 4","4","2016-07-31","218","Serum","Alkaline phosphatase (ALP) (µkat/L)","0.594447287900278","0.5","1.5"
"01-005","01","Site 01","30","M","White","Treatment B","2015-12-27","Y","2016-02-16","52","2017-01-03","374","Y","N","Visit 4","4","2016-07-31","218","Serum","Aminotransferase, alanine (ALT) (pkat/L)","0","0","0.58"
"01-005","01","Site 01","30","M","White","Treatment B","2015-12-27","Y","2016-02-16","52","2017-01-03","374","Y","N","Visit 4","4","2016-07-31","218","Serum","Aminotransferase, aspartate (AST) (pkat/L)","0.0199233255203901","0","0.58"
"01-005","01","Site 01","30","M","White","Treatment B","2015-12-27","Y","2016-02-16","52","2017-01-03","374","Y","N","Visit 4","4","2016-07-31","218","Serum","Calcium (mmol/L)","2.44335286185041","2.2","2.6"
"01-005","01","Site 01","30","M","White","Treatment B","2015-12-27","Y","2016-02-16","52","2017-01-03","374","Y","N","Visit 4","4","2016-07-31","218","Serum","Chloride (mmol/L)","100.326867032817","98","106"
"01-005","01","Site 01","30","M","White","Treatment B","2015-12-27","Y","2016-02-16","52","2017-01-03","374","Y","N","Visit 4","4","2016-07-31","218","Serum","Creatinine (µmol/L)","106.842054435848","61.9","115"
"01-005","01","Site 01","30","M","White","Treatment B","2015-12-27","Y","2016-02-16","52","2017-01-03","374","Y","N","Visit 4","4","2016-07-31","218","Serum","Direct Bilirubin (µmol/L)","0.751279607127888","0","5.1"
"01-005","01","Site 01","30","M","White","Treatment B","2015-12-27","Y","2016-02-16","52","2017-01-03","374","Y","N","Visit 4","4","2016-07-31","218","Serum","IgE (mg/L)","0.246693151314451","0.1","0.4"
"01-005","01","Site 01","30","M","White","Treatment B","2015-12-27","Y","2016-02-16","52","2017-01-03","374","Y","N","Visit 4","4","2016-07-31","218","Serum","Magnesium (mmol/L)","0.482032557174775","0.62","0.99"
"01-005","01","Site 01","30","M","White","Treatment B","2015-12-27","Y","2016-02-16","52","2017-01-03","374","Y","N","Visit 4","4","2016-07-31","218","Serum","Potassium (mmol/L)","","3.5","5"
"01-005","01","Site 01","30","M","White","Treatment B","2015-12-27","Y","2016-02-16","52","2017-01-03","374","Y","N","Visit 4","4","2016-07-31","218","Serum","Sodium (mmol/L)","143.947859638614","136","145"
"01-005","01","Site 01","30","M","White","Treatment B","2015-12-27","Y","2016-02-16","52","2017-01-03","374","Y","N","Visit 4","4","2016-07-31","218","Serum","Total Bilirubin (µmol/L)","","5.1","20.5"
"01-005","01","Site 01","30","M","White","Treatment B","2015-12-27","Y","2016-02-16","52","2017-01-03","374","Y","N","Visit 5","5","2016-09-24","273","Blood","Platelet count (x 109/L)","163.682096140391","150","350"
"01-005","01","Site 01","30","M","White","Treatment B","2015-12-27","Y","2016-02-16","52","2017-01-03","374","Y","N","Visit 5","5","2016-09-24","273","Blood","RBC count (x 1012 cells/L)","4.44238143483607","4.2","5.9"
"01-005","01","Site 01","30","M","White","Treatment B","2015-12-27","Y","2016-02-16","52","2017-01-03","374","Y","N","Visit 5","5","2016-09-24","273","Blood","WBC count (x 109 cells/L)","","4.5","11"
"01-005","01","Site 01","30","M","White","Treatment B","2015-12-27","Y","2016-02-16","52","2017-01-03","374","Y","N","Visit 5","5","2016-09-24","273","Serum","Albumin (g/L)","46.2494087116436","35","55"
"01-005","01","Site 01","30","M","White","Treatment B","2015-12-27","Y","2016-02-16","52","2017-01-03","374","Y","N","Visit 5","5","2016-09-24","273","Serum","Alkaline phosphatase (ALP) (µkat/L)","1.82176016616302","0.5","1.5"
"01-005","01","Site 01","30","M","White","Treatment B","2015-12-27","Y","2016-02-16","52","2017-01-03","374","Y","N","Visit 5","5","2016-09-24","273","Serum","Aminotransferase, alanine (ALT) (pkat/L)","0.311294823612392","0","0.58"
"01-005","01","Site 01","30","M","White","Treatment B","2015-12-27","Y","2016-02-16","52","2017-01-03","374","Y","N","Visit 5","5","2016-09-24","273","Serum","Aminotransferase, aspartate (AST) (pkat/L)","0.388562675836453","0","0.58"
"01-005","01","Site 01","30","M","White","Treatment B","2015-12-27","Y","2016-02-16","52","2017-01-03","374","Y","N","Visit 5","5","2016-09-24","273","Serum","Calcium (mmol/L)","2.20374530638529","2.2","2.6"
"01-005","01","Site 01","30","M","White","Treatment B","2015-12-27","Y","2016-02-16","52","2017-01-03","374","Y","N","Visit 5","5","2016-09-24","273","Serum","Chloride (mmol/L)","103.045394019221","98","106"
"01-005","01","Site 01","30","M","White","Treatment B","2015-12-27","Y","2016-02-16","52","2017-01-03","374","Y","N","Visit 5","5","2016-09-24","273","Serum","Creatinine (µmol/L)","117.897265593463","61.9","115"
"01-005","01","Site 01","30","M","White","Treatment B","2015-12-27","Y","2016-02-16","52","2017-01-03","374","Y","N","Visit 5","5","2016-09-24","273","Serum","Direct Bilirubin (µmol/L)","0.852184700165432","0","5.1"
"01-005","01","Site 01","30","M","White","Treatment B","2015-12-27","Y","2016-02-16","52","2017-01-03","374","Y","N","Visit 5","5","2016-09-24","273","Serum","IgE (mg/L)","0.482628530516524","0.1","0.4"
"01-005","01","Site 01","30","M","White","Treatment B","2015-12-27","Y","2016-02-16","52","2017-01-03","374","Y","N","Visit 5","5","2016-09-24","273","Serum","Magnesium (mmol/L)","0.519797179867912","0.62","0.99"
"01-005","01","Site 01","30","M","White","Treatment B","2015-12-27","Y","2016-02-16","52","2017-01-03","374","Y","N","Visit 5","5","2016-09-24","273","Serum","Potassium (mmol/L)","","3.5","5"
"01-005","01","Site 01","30","M","White","Treatment B","2015-12-27","Y","2016-02-16","52","2017-01-03","374","Y","N","Visit 5","5","2016-09-24","273","Serum","Sodium (mmol/L)","141.534453300143","136","145"
"01-005","01","Site 01","30","M","White","Treatment B","2015-12-27","Y","2016-02-16","52","2017-01-03","374","Y","N","Visit 5","5","2016-09-24","273","Serum","Total Bilirubin (µmol/L)","14.0207921622965","5.1","20.5"
"01-005","01","Site 01","30","M","White","Treatment B","2015-12-27","Y","2016-02-16","52","2017-01-03","374","Y","N","Visit 6","6","2016-11-28","338","Blood","Platelet count (x 109/L)","376.397681773702","150","350"
"01-005","01","Site 01","30","M","White","Treatment B","2015-12-27","Y","2016-02-16","52","2017-01-03","374","Y","N","Visit 6","6","2016-11-28","338","Blood","RBC count (x 1012 cells/L)","","4.2","5.9"
"01-005","01","Site 01","30","M","White","Treatment B","2015-12-27","Y","2016-02-16","52","2017-01-03","374","Y","N","Visit 6","6","2016-11-28","338","Blood","WBC count (x 109 cells/L)","8.88523719387585","4.5","11"
"01-005","01","Site 01","30","M","White","Treatment B","2015-12-27","Y","2016-02-16","52","2017-01-03","374","Y","N","Visit 6","6","2016-11-28","338","Serum","Albumin (g/L)","52.2372984482254","35","55"
"01-005","01","Site 01","30","M","White","Treatment B","2015-12-27","Y","2016-02-16","52","2017-01-03","374","Y","N","Visit 6","6","2016-11-28","338","Serum","Alkaline phosphatase (ALP) (µkat/L)","1.42889507181819","0.5","1.5"
"01-005","01","Site 01","30","M","White","Treatment B","2015-12-27","Y","2016-02-16","52","2017-01-03","374","Y","N","Visit 6","6","2016-11-28","338","Serum","Aminotransferase, alanine (ALT) (pkat/L)","","0","0.58"
"01-005","01","Site 01","30","M","White","Treatment B","2015-12-27","Y","2016-02-16","52","2017-01-03","374","Y","N","Visit 6","6","2016-11-28","338","Serum","Aminotransferase, aspartate (AST) (pkat/L)","0.548886614267895","0","0.58"
"01-005","01","Site 01","30","M","White","Treatment B","2015-12-27","Y","2016-02-16","52","2017-01-03","374","Y","N","Visit 6","6","2016-11-28","338","Serum","Calcium (mmol/L)","","2.2","2.6"
"01-005","01","Site 01","30","M","White","Treatment B","2015-12-27","Y","2016-02-16","52","2017-01-03","374","Y","N","Visit 6","6","2016-11-28","338","Serum","Chloride (mmol/L)","106.603298203916","98","106"
"01-005","01","Site 01","30","M","White","Treatment B","2015-12-27","Y","2016-02-16","52","2017-01-03","374","Y","N","Visit 6","6","2016-11-28","338","Serum","Creatinine (µmol/L)","69.0643424462765","61.9","115"
"01-005","01","Site 01","30","M","White","Treatment B","2015-12-27","Y","2016-02-16","52","2017-01-03","374","Y","N","Visit 6","6","2016-11-28","338","Serum","Direct Bilirubin (µmol/L)","2.43592542381113","0","5.1"
"01-005","01","Site 01","30","M","White","Treatment B","2015-12-27","Y","2016-02-16","52","2017-01-03","374","Y","N","Visit 6","6","2016-11-28","338","Serum","IgE (mg/L)","0.256154268477539","0.1","0.4"
"01-005","01","Site 01","30","M","White","Treatment B","2015-12-27","Y","2016-02-16","52","2017-01-03","374","Y","N","Visit 6","6","2016-11-28","338","Serum","Magnesium (mmol/L)","","0.62","0.99"
"01-005","01","Site 01","30","M","White","Treatment B","2015-12-27","Y","2016-02-16","52","2017-01-03","374","Y","N","Visit 6","6","2016-11-28","338","Serum","Potassium (mmol/L)","5.17611180251673","3.5","5"
"01-005","01","Site 01","30","M","White","Treatment B","2015-12-27","Y","2016-02-16","52","2017-01-03","374","Y","N","Visit 6","6","2016-11-28","338","Serum","Sodium (mmol/L)","142.724729492547","136","145"
"01-005","01","Site 01","30","M","White","Treatment B","2015-12-27","Y","2016-02-16","52","2017-01-03","374","Y","N","Visit 6","6","2016-11-28","338","Serum","Total Bilirubin (µmol/L)","20.5789994655609","5.1","20.5"
"01-005","01","Site 01","30","M","White","Treatment B","2015-12-27","Y","2016-02-16","52","2017-01-03","374","Y","N","End of Study","7","2017-01-03","374","Blood","Platelet count (x 109/L)","180.925780254354","150","350"
"01-005","01","Site 01","30","M","White","Treatment B","2015-12-27","Y","2016-02-16","52","2017-01-03","374","Y","N","End of Study","7","2017-01-03","374","Blood","RBC count (x 1012 cells/L)","4.93054192968877","4.2","5.9"
"01-005","01","Site 01","30","M","White","Treatment B","2015-12-27","Y","2016-02-16","52","2017-01-03","374","Y","N","End of Study","7","2017-01-03","374","Blood","WBC count (x 109 cells/L)","8.79824137316978","4.5","11"
"01-005","01","Site 01","30","M","White","Treatment B","2015-12-27","Y","2016-02-16","52","2017-01-03","374","Y","N","End of Study","7","2017-01-03","374","Serum","Albumin (g/L)","28.6344783877293","35","55"
"01-005","01","Site 01","30","M","White","Treatment B","2015-12-27","Y","2016-02-16","52","2017-01-03","374","Y","N","End of Study","7","2017-01-03","374","Serum","Alkaline phosphatase (ALP) (µkat/L)","1.0905752142374","0.5","1.5"
"01-005","01","Site 01","30","M","White","Treatment B","2015-12-27","Y","2016-02-16","52","2017-01-03","374","Y","N","End of Study","7","2017-01-03","374","Serum","Aminotransferase, alanine (ALT) (pkat/L)","0.505160956837904","0","0.58"
"01-005","01","Site 01","30","M","White","Treatment B","2015-12-27","Y","2016-02-16","52","2017-01-03","374","Y","N","End of Study","7","2017-01-03","374","Serum","Aminotransferase, aspartate (AST) (pkat/L)","0.338429760887228","0","0.58"
"01-005","01","Site 01","30","M","White","Treatment B","2015-12-27","Y","2016-02-16","52","2017-01-03","374","Y","N","End of Study","7","2017-01-03","374","Serum","Calcium (mmol/L)","2.40505512529952","2.2","2.6"
"01-005","01","Site 01","30","M","White","Treatment B","2015-12-27","Y","2016-02-16","52","2017-01-03","374","Y","N","End of Study","7","2017-01-03","374","Serum","Chloride (mmol/L)","","98","106"
"01-005","01","Site 01","30","M","White","Treatment B","2015-12-27","Y","2016-02-16","52","2017-01-03","374","Y","N","End of Study","7","2017-01-03","374","Serum","Creatinine (µmol/L)","","61.9","115"
"01-005","01","Site 01","30","M","White","Treatment B","2015-12-27","Y","2016-02-16","52","2017-01-03","374","Y","N","End of Study","7","2017-01-03","374","Serum","Direct Bilirubin (µmol/L)","","0","5.1"
"01-005","01","Site 01","30","M","White","Treatment B","2015-12-27","Y","2016-02-16","52","2017-01-03","374","Y","N","End of Study","7","2017-01-03","374","Serum","IgE (mg/L)","0.132878364687157","0.1","0.4"
"01-005","01","Site 01","30","M","White","Treatment B","2015-12-27","Y","2016-02-16","52","2017-01-03","374","Y","N","End of Study","7","2017-01-03","374","Serum","Magnesium (mmol/L)","0.758924657045009","0.62","0.99"
"01-005","01","Site 01","30","M","White","Treatment B","2015-12-27","Y","2016-02-16","52","2017-01-03","374","Y","N","End of Study","7","2017-01-03","374","Serum","Potassium (mmol/L)","4.78787897183714","3.5","5"
"01-005","01","Site 01","30","M","White","Treatment B","2015-12-27","Y","2016-02-16","52","2017-01-03","374","Y","N","End of Study","7","2017-01-03","374","Serum","Sodium (mmol/L)","144.361391918282","136","145"
"01-005","01","Site 01","30","M","White","Treatment B","2015-12-27","Y","2016-02-16","52","2017-01-03","374","Y","N","End of Study","7","2017-01-03","374","Serum","Total Bilirubin (µmol/L)","8.82997313537612","5.1","20.5"
"01-008","01","Site 01","29","F","Hispanic","Treatment B","2015-02-14","Y","2015-04-05","51","2016-02-15","367","Y","N","Screening","0","2015-02-14","1","Blood","Platelet count (x 109/L)","118.482590945629","150","350"
"01-008","01","Site 01","29","F","Hispanic","Treatment B","2015-02-14","Y","2015-04-05","51","2016-02-15","367","Y","N","Screening","0","2015-02-14","1","Blood","RBC count (x 1012 cells/L)","3.64734340225825","4.2","5.9"
"01-008","01","Site 01","29","F","Hispanic","Treatment B","2015-02-14","Y","2015-04-05","51","2016-02-15","367","Y","N","Screening","0","2015-02-14","1","Blood","WBC count (x 109 cells/L)","6.28152321185565","4.5","11"
"01-008","01","Site 01","29","F","Hispanic","Treatment B","2015-02-14","Y","2015-04-05","51","2016-02-15","367","Y","N","Screening","0","2015-02-14","1","Serum","Albumin (g/L)","38.9639464810801","35","55"
"01-008","01","Site 01","29","F","Hispanic","Treatment B","2015-02-14","Y","2015-04-05","51","2016-02-15","367","Y","N","Screening","0","2015-02-14","1","Serum","Alkaline phosphatase (ALP) (µkat/L)","","0.5","1.5"
"01-008","01","Site 01","29","F","Hispanic","Treatment B","2015-02-14","Y","2015-04-05","51","2016-02-15","367","Y","N","Screening","0","2015-02-14","1","Serum","Aminotransferase, alanine (ALT) (pkat/L)","0.0616805765709209","0","0.58"
"01-008","01","Site 01","29","F","Hispanic","Treatment B","2015-02-14","Y","2015-04-05","51","2016-02-15","367","Y","N","Screening","0","2015-02-14","1","Serum","Aminotransferase, aspartate (AST) (pkat/L)","0.766332699980969","0","0.58"
"01-008","01","Site 01","29","F","Hispanic","Treatment B","2015-02-14","Y","2015-04-05","51","2016-02-15","367","Y","N","Screening","0","2015-02-14","1","Serum","Calcium (mmol/L)","2.80480833046183","2.2","2.6"
"01-008","01","Site 01","29","F","Hispanic","Treatment B","2015-02-14","Y","2015-04-05","51","2016-02-15","367","Y","N","Screening","0","2015-02-14","1","Serum","Chloride (mmol/L)","107.825598319221","98","106"
"01-008","01","Site 01","29","F","Hispanic","Treatment B","2015-02-14","Y","2015-04-05","51","2016-02-15","367","Y","N","Screening","0","2015-02-14","1","Serum","Creatinine (µmol/L)","29.6583969379298","61.9","115"
"01-008","01","Site 01","29","F","Hispanic","Treatment B","2015-02-14","Y","2015-04-05","51","2016-02-15","367","Y","N","Screening","0","2015-02-14","1","Serum","Direct Bilirubin (µmol/L)","2.68005618994082","0","5.1"
"01-008","01","Site 01","29","F","Hispanic","Treatment B","2015-02-14","Y","2015-04-05","51","2016-02-15","367","Y","N","Screening","0","2015-02-14","1","Serum","IgE (mg/L)","0.111156173785332","0.1","0.4"
"01-008","01","Site 01","29","F","Hispanic","Treatment B","2015-02-14","Y","2015-04-05","51","2016-02-15","367","Y","N","Screening","0","2015-02-14","1","Serum","Magnesium (mmol/L)","0.632551373510518","0.62","0.99"
"01-008","01","Site 01","29","F","Hispanic","Treatment B","2015-02-14","Y","2015-04-05","51","2016-02-15","367","Y","N","Screening","0","2015-02-14","1","Serum","Potassium (mmol/L)","3.81346742558466","3.5","5"
"01-008","01","Site 01","29","F","Hispanic","Treatment B","2015-02-14","Y","2015-04-05","51","2016-02-15","367","Y","N","Screening","0","2015-02-14","1","Serum","Sodium (mmol/L)","140.084922075062","136","145"
"01-008","01","Site 01","29","F","Hispanic","Treatment B","2015-02-14","Y","2015-04-05","51","2016-02-15","367","Y","N","Screening","0","2015-02-14","1","Serum","Total Bilirubin (µmol/L)","10.4150956062608","5.1","20.5"
"01-008","01","Site 01","29","F","Hispanic","Treatment B","2015-02-14","Y","2015-04-05","51","2016-02-15","367","Y","N","Visit 1","1","2015-04-05","51","Blood","Platelet count (x 109/L)","456.678225274279","150","350"
"01-008","01","Site 01","29","F","Hispanic","Treatment B","2015-02-14","Y","2015-04-05","51","2016-02-15","367","Y","N","Visit 1","1","2015-04-05","51","Blood","RBC count (x 1012 cells/L)","4.8080472333965","4.2","5.9"
"01-008","01","Site 01","29","F","Hispanic","Treatment B","2015-02-14","Y","2015-04-05","51","2016-02-15","367","Y","N","Visit 1","1","2015-04-05","51","Blood","WBC count (x 109 cells/L)","7.95824970996229","4.5","11"
"01-008","01","Site 01","29","F","Hispanic","Treatment B","2015-02-14","Y","2015-04-05","51","2016-02-15","367","Y","N","Visit 1","1","2015-04-05","51","Serum","Albumin (g/L)","61.0974076374578","35","55"
"01-008","01","Site 01","29","F","Hispanic","Treatment B","2015-02-14","Y","2015-04-05","51","2016-02-15","367","Y","N","Visit 1","1","2015-04-05","51","Serum","Alkaline phosphatase (ALP) (µkat/L)","1.37250131761165","0.5","1.5"
"01-008","01","Site 01","29","F","Hispanic","Treatment B","2015-02-14","Y","2015-04-05","51","2016-02-15","367","Y","N","Visit 1","1","2015-04-05","51","Serum","Aminotransferase, alanine (ALT) (pkat/L)","0.164943993502411","0","0.58"
"01-008","01","Site 01","29","F","Hispanic","Treatment B","2015-02-14","Y","2015-04-05","51","2016-02-15","367","Y","N","Visit 1","1","2015-04-05","51","Serum","Aminotransferase, aspartate (AST) (pkat/L)","0.194613868812165","0","0.58"
"01-008","01","Site 01","29","F","Hispanic","Treatment B","2015-02-14","Y","2015-04-05","51","2016-02-15","367","Y","N","Visit 1","1","2015-04-05","51","Serum","Calcium (mmol/L)","2.35504581106081","2.2","2.6"
"01-008","01","Site 01","29","F","Hispanic","Treatment B","2015-02-14","Y","2015-04-05","51","2016-02-15","367","Y","N","Visit 1","1","2015-04-05","51","Serum","Chloride (mmol/L)","","98","106"
"01-008","01","Site 01","29","F","Hispanic","Treatment B","2015-02-14","Y","2015-04-05","51","2016-02-15","367","Y","N","Visit 1","1","2015-04-05","51","Serum","Creatinine (µmol/L)","111.502326076589","61.9","115"
"01-008","01","Site 01","29","F","Hispanic","Treatment B","2015-02-14","Y","2015-04-05","51","2016-02-15","367","Y","N","Visit 1","1","2015-04-05","51","Serum","Direct Bilirubin (µmol/L)","3.26836044602966","0","5.1"
"01-008","01","Site 01","29","F","Hispanic","Treatment B","2015-02-14","Y","2015-04-05","51","2016-02-15","367","Y","N","Visit 1","1","2015-04-05","51","Serum","IgE (mg/L)","0.173721634661266","0.1","0.4"
"01-008","01","Site 01","29","F","Hispanic","Treatment B","2015-02-14","Y","2015-04-05","51","2016-02-15","367","Y","N","Visit 1","1","2015-04-05","51","Serum","Magnesium (mmol/L)","0.697410966082824","0.62","0.99"
"01-008","01","Site 01","29","F","Hispanic","Treatment B","2015-02-14","Y","2015-04-05","51","2016-02-15","367","Y","N","Visit 1","1","2015-04-05","51","Serum","Potassium (mmol/L)","3.99592148430212","3.5","5"
"01-008","01","Site 01","29","F","Hispanic","Treatment B","2015-02-14","Y","2015-04-05","51","2016-02-15","367","Y","N","Visit 1","1","2015-04-05","51","Serum","Sodium (mmol/L)","140.783775575645","136","145"
"01-008","01","Site 01","29","F","Hispanic","Treatment B","2015-02-14","Y","2015-04-05","51","2016-02-15","367","Y","N","Visit 1","1","2015-04-05","51","Serum","Total Bilirubin (µmol/L)","3.29164486364207","5.1","20.5"
"01-008","01","Site 01","29","F","Hispanic","Treatment B","2015-02-14","Y","2015-04-05","51","2016-02-15","367","Y","N","Visit 2","2","2015-06-01","108","Blood","Platelet count (x 109/L)","352.801398765362","150","350"
"01-008","01","Site 01","29","F","Hispanic","Treatment B","2015-02-14","Y","2015-04-05","51","2016-02-15","367","Y","N","Visit 2","2","2015-06-01","108","Blood","RBC count (x 1012 cells/L)","4.47993667740587","4.2","5.9"
"01-008","01","Site 01","29","F","Hispanic","Treatment B","2015-02-14","Y","2015-04-05","51","2016-02-15","367","Y","N","Visit 2","2","2015-06-01","108","Blood","WBC count (x 109 cells/L)","3.55480701128951","4.5","11"
"01-008","01","Site 01","29","F","Hispanic","Treatment B","2015-02-14","Y","2015-04-05","51","2016-02-15","367","Y","N","Visit 2","2","2015-06-01","108","Serum","Albumin (g/L)","42.9253645623885","35","55"
"01-008","01","Site 01","29","F","Hispanic","Treatment B","2015-02-14","Y","2015-04-05","51","2016-02-15","367","Y","N","Visit 2","2","2015-06-01","108","Serum","Alkaline phosphatase (ALP) (µkat/L)","0.889671973813787","0.5","1.5"
"01-008","01","Site 01","29","F","Hispanic","Treatment B","2015-02-14","Y","2015-04-05","51","2016-02-15","367","Y","N","Visit 2","2","2015-06-01","108","Serum","Aminotransferase, alanine (ALT) (pkat/L)","0.252477227919723","0","0.58"
"01-008","01","Site 01","29","F","Hispanic","Treatment B","2015-02-14","Y","2015-04-05","51","2016-02-15","367","Y","N","Visit 2","2","2015-06-01","108","Serum","Aminotransferase, aspartate (AST) (pkat/L)","0.379256300122657","0","0.58"
"01-008","01","Site 01","29","F","Hispanic","Treatment B","2015-02-14","Y","2015-04-05","51","2016-02-15","367","Y","N","Visit 2","2","2015-06-01","108","Serum","Calcium (mmol/L)","2.36814949793219","2.2","2.6"
"01-008","01","Site 01","29","F","Hispanic","Treatment B","2015-02-14","Y","2015-04-05","51","2016-02-15","367","Y","N","Visit 2","2","2015-06-01","108","Serum","Chloride (mmol/L)","100.265838320933","98","106"
"01-008","01","Site 01","29","F","Hispanic","Treatment B","2015-02-14","Y","2015-04-05","51","2016-02-15","367","Y","N","Visit 2","2","2015-06-01","108","Serum","Creatinine (µmol/L)","68.3064933929743","61.9","115"
"01-008","01","Site 01","29","F","Hispanic","Treatment B","2015-02-14","Y","2015-04-05","51","2016-02-15","367","Y","N","Visit 2","2","2015-06-01","108","Serum","Direct Bilirubin (µmol/L)","6.3262942888608","0","5.1"
"01-008","01","Site 01","29","F","Hispanic","Treatment B","2015-02-14","Y","2015-04-05","51","2016-02-15","367","Y","N","Visit 2","2","2015-06-01","108","Serum","IgE (mg/L)","0.151717569962247","0.1","0.4"
"01-008","01","Site 01","29","F","Hispanic","Treatment B","2015-02-14","Y","2015-04-05","51","2016-02-15","367","Y","N","Visit 2","2","2015-06-01","108","Serum","Magnesium (mmol/L)","0.90017991704221","0.62","0.99"
"01-008","01","Site 01","29","F","Hispanic","Treatment B","2015-02-14","Y","2015-04-05","51","2016-02-15","367","Y","N","Visit 2","2","2015-06-01","108","Serum","Potassium (mmol/L)","4.47571829610284","3.5","5"
"01-008","01","Site 01","29","F","Hispanic","Treatment B","2015-02-14","Y","2015-04-05","51","2016-02-15","367","Y","N","Visit 2","2","2015-06-01","108","Serum","Sodium (mmol/L)","138.544412010564","136","145"
"01-008","01","Site 01","29","F","Hispanic","Treatment B","2015-02-14","Y","2015-04-05","51","2016-02-15","367","Y","N","Visit 2","2","2015-06-01","108","Serum","Total Bilirubin (µmol/L)","16.3873163970804","5.1","20.5"
"01-008","01","Site 01","29","F","Hispanic","Treatment B","2015-02-14","Y","2015-04-05","51","2016-02-15","367","Y","N","Visit 3","3","2015-08-05","173","Blood","Platelet count (x 109/L)","67.3158408336754","150","350"
"01-008","01","Site 01","29","F","Hispanic","Treatment B","2015-02-14","Y","2015-04-05","51","2016-02-15","367","Y","N","Visit 3","3","2015-08-05","173","Blood","RBC count (x 1012 cells/L)","3.01921139908626","4.2","5.9"
"01-008","01","Site 01","29","F","Hispanic","Treatment B","2015-02-14","Y","2015-04-05","51","2016-02-15","367","Y","N","Visit 3","3","2015-08-05","173","Blood","WBC count (x 109 cells/L)","13.3499584157604","4.5","11"
"01-008","01","Site 01","29","F","Hispanic","Treatment B","2015-02-14","Y","2015-04-05","51","2016-02-15","367","Y","N","Visit 3","3","2015-08-05","173","Serum","Albumin (g/L)","45.927084177525","35","55"
"01-008","01","Site 01","29","F","Hispanic","Treatment B","2015-02-14","Y","2015-04-05","51","2016-02-15","367","Y","N","Visit 3","3","2015-08-05","173","Serum","Alkaline phosphatase (ALP) (µkat/L)","1.07150753473461","0.5","1.5"
"01-008","01","Site 01","29","F","Hispanic","Treatment B","2015-02-14","Y","2015-04-05","51","2016-02-15","367","Y","N","Visit 3","3","2015-08-05","173","Serum","Aminotransferase, alanine (ALT) (pkat/L)","0.287687201063858","0","0.58"
"01-008","01","Site 01","29","F","Hispanic","Treatment B","2015-02-14","Y","2015-04-05","51","2016-02-15","367","Y","N","Visit 3","3","2015-08-05","173","Serum","Aminotransferase, aspartate (AST) (pkat/L)","0.527838953120775","0","0.58"
"01-008","01","Site 01","29","F","Hispanic","Treatment B","2015-02-14","Y","2015-04-05","51","2016-02-15","367","Y","N","Visit 3","3","2015-08-05","173","Serum","Calcium (mmol/L)","2.34339493613714","2.2","2.6"
"01-008","01","Site 01","29","F","Hispanic","Treatment B","2015-02-14","Y","2015-04-05","51","2016-02-15","367","Y","N","Visit 3","3","2015-08-05","173","Serum","Chloride (mmol/L)","96.6596969639023","98","106"
"01-008","01","Site 01","29","F","Hispanic","Treatment B","2015-02-14","Y","2015-04-05","51","2016-02-15","367","Y","N","Visit 3","3","2015-08-05","173","Serum","Creatinine (µmol/L)","135.322586802787","61.9","115"
"01-008","01","Site 01","29","F","Hispanic","Treatment B","2015-02-14","Y","2015-04-05","51","2016-02-15","367","Y","N","Visit 3","3","2015-08-05","173","Serum","Direct Bilirubin (µmol/L)","4.28523001205764","0","5.1"
"01-008","01","Site 01","29","F","Hispanic","Treatment B","2015-02-14","Y","2015-04-05","51","2016-02-15","367","Y","N","Visit 3","3","2015-08-05","173","Serum","IgE (mg/L)","0.293144736705968","0.1","0.4"
"01-008","01","Site 01","29","F","Hispanic","Treatment B","2015-02-14","Y","2015-04-05","51","2016-02-15","367","Y","N","Visit 3","3","2015-08-05","173","Serum","Magnesium (mmol/L)","0.817095411559925","0.62","0.99"
"01-008","01","Site 01","29","F","Hispanic","Treatment B","2015-02-14","Y","2015-04-05","51","2016-02-15","367","Y","N","Visit 3","3","2015-08-05","173","Serum","Potassium (mmol/L)","3.80946065092344","3.5","5"
"01-008","01","Site 01","29","F","Hispanic","Treatment B","2015-02-14","Y","2015-04-05","51","2016-02-15","367","Y","N","Visit 3","3","2015-08-05","173","Serum","Sodium (mmol/L)","","136","145"
"01-008","01","Site 01","29","F","Hispanic","Treatment B","2015-02-14","Y","2015-04-05","51","2016-02-15","367","Y","N","Visit 3","3","2015-08-05","173","Serum","Total Bilirubin (µmol/L)","5.53389601121583","5.1","20.5"
"01-008","01","Site 01","29","F","Hispanic","Treatment B","2015-02-14","Y","2015-04-05","51","2016-02-15","367","Y","N","Visit 4","4","2015-09-22","221","Blood","Platelet count (x 109/L)","269.21862928104","150","350"
"01-008","01","Site 01","29","F","Hispanic","Treatment B","2015-02-14","Y","2015-04-05","51","2016-02-15","367","Y","N","Visit 4","4","2015-09-22","221","Blood","RBC count (x 1012 cells/L)","5.55265129321294","4.2","5.9"
"01-008","01","Site 01","29","F","Hispanic","Treatment B","2015-02-14","Y","2015-04-05","51","2016-02-15","367","Y","N","Visit 4","4","2015-09-22","221","Blood","WBC count (x 109 cells/L)","5.26269898008904","4.5","11"
"01-008","01","Site 01","29","F","Hispanic","Treatment B","2015-02-14","Y","2015-04-05","51","2016-02-15","367","Y","N","Visit 4","4","2015-09-22","221","Serum","Albumin (g/L)","35.8767510382789","35","55"
"01-008","01","Site 01","29","F","Hispanic","Treatment B","2015-02-14","Y","2015-04-05","51","2016-02-15","367","Y","N","Visit 4","4","2015-09-22","221","Serum","Alkaline phosphatase (ALP) (µkat/L)","0.802136234318001","0.5","1.5"
"01-008","01","Site 01","29","F","Hispanic","Treatment B","2015-02-14","Y","2015-04-05","51","2016-02-15","367","Y","N","Visit 4","4","2015-09-22","221","Serum","Aminotransferase, alanine (ALT) (pkat/L)","0.27449481085514","0","0.58"
"01-008","01","Site 01","29","F","Hispanic","Treatment B","2015-02-14","Y","2015-04-05","51","2016-02-15","367","Y","N","Visit 4","4","2015-09-22","221","Serum","Aminotransferase, aspartate (AST) (pkat/L)","0.178113162788957","0","0.58"
"01-008","01","Site 01","29","F","Hispanic","Treatment B","2015-02-14","Y","2015-04-05","51","2016-02-15","367","Y","N","Visit 4","4","2015-09-22","221","Serum","Calcium (mmol/L)","2.53925930778775","2.2","2.6"
"01-008","01","Site 01","29","F","Hispanic","Treatment B","2015-02-14","Y","2015-04-05","51","2016-02-15","367","Y","N","Visit 4","4","2015-09-22","221","Serum","Chloride (mmol/L)","98.129233683226","98","106"
"01-008","01","Site 01","29","F","Hispanic","Treatment B","2015-02-14","Y","2015-04-05","51","2016-02-15","367","Y","N","Visit 4","4","2015-09-22","221","Serum","Creatinine (µmol/L)","23.5902341047823","61.9","115"
"01-008","01","Site 01","29","F","Hispanic","Treatment B","2015-02-14","Y","2015-04-05","51","2016-02-15","367","Y","N","Visit 4","4","2015-09-22","221","Serum","Direct Bilirubin (µmol/L)","2.34339745432055","0","5.1"
"01-008","01","Site 01","29","F","Hispanic","Treatment B","2015-02-14","Y","2015-04-05","51","2016-02-15","367","Y","N","Visit 4","4","2015-09-22","221","Serum","IgE (mg/L)","0","0.1","0.4"
"01-008","01","Site 01","29","F","Hispanic","Treatment B","2015-02-14","Y","2015-04-05","51","2016-02-15","367","Y","N","Visit 4","4","2015-09-22","221","Serum","Magnesium (mmol/L)","1.02427372472229","0.62","0.99"
"01-008","01","Site 01","29","F","Hispanic","Treatment B","2015-02-14","Y","2015-04-05","51","2016-02-15","367","Y","N","Visit 4","4","2015-09-22","221","Serum","Potassium (mmol/L)","4.86654018936137","3.5","5"
"01-008","01","Site 01","29","F","Hispanic","Treatment B","2015-02-14","Y","2015-04-05","51","2016-02-15","367","Y","N","Visit 4","4","2015-09-22","221","Serum","Sodium (mmol/L)","142.685093876298","136","145"
"01-008","01","Site 01","29","F","Hispanic","Treatment B","2015-02-14","Y","2015-04-05","51","2016-02-15","367","Y","N","Visit 4","4","2015-09-22","221","Serum","Total Bilirubin (µmol/L)","","5.1","20.5"
"01-008","01","Site 01","29","F","Hispanic","Treatment B","2015-02-14","Y","2015-04-05","51","2016-02-15","367","Y","N","Visit 5","5","2015-11-21","281","Blood","Platelet count (x 109/L)","374.716592907978","150","350"
"01-008","01","Site 01","29","F","Hispanic","Treatment B","2015-02-14","Y","2015-04-05","51","2016-02-15","367","Y","N","Visit 5","5","2015-11-21","281","Blood","RBC count (x 1012 cells/L)","5.95434517057478","4.2","5.9"
"01-008","01","Site 01","29","F","Hispanic","Treatment B","2015-02-14","Y","2015-04-05","51","2016-02-15","367","Y","N","Visit 5","5","2015-11-21","281","Blood","WBC count (x 109 cells/L)","","4.5","11"
"01-008","01","Site 01","29","F","Hispanic","Treatment B","2015-02-14","Y","2015-04-05","51","2016-02-15","367","Y","N","Visit 5","5","2015-11-21","281","Serum","Albumin (g/L)","55.2882371950313","35","55"
"01-008","01","Site 01","29","F","Hispanic","Treatment B","2015-02-14","Y","2015-04-05","51","2016-02-15","367","Y","N","Visit 5","5","2015-11-21","281","Serum","Alkaline phosphatase (ALP) (µkat/L)","1.47409463769275","0.5","1.5"
"01-008","01","Site 01","29","F","Hispanic","Treatment B","2015-02-14","Y","2015-04-05","51","2016-02-15","367","Y","N","Visit 5","5","2015-11-21","281","Serum","Aminotransferase, alanine (ALT) (pkat/L)","0.165420213977375","0","0.58"
"01-008","01","Site 01","29","F","Hispanic","Treatment B","2015-02-14","Y","2015-04-05","51","2016-02-15","367","Y","N","Visit 5","5","2015-11-21","281","Serum","Aminotransferase, aspartate (AST) (pkat/L)","0.173813792186011","0","0.58"
"01-008","01","Site 01","29","F","Hispanic","Treatment B","2015-02-14","Y","2015-04-05","51","2016-02-15","367","Y","N","Visit 5","5","2015-11-21","281","Serum","Calcium (mmol/L)","2.7651665855075","2.2","2.6"
"01-008","01","Site 01","29","F","Hispanic","Treatment B","2015-02-14","Y","2015-04-05","51","2016-02-15","367","Y","N","Visit 5","5","2015-11-21","281","Serum","Chloride (mmol/L)","100.483955695593","98","106"
"01-008","01","Site 01","29","F","Hispanic","Treatment B","2015-02-14","Y","2015-04-05","51","2016-02-15","367","Y","N","Visit 5","5","2015-11-21","281","Serum","Creatinine (µmol/L)","67.4001706969365","61.9","115"
"01-008","01","Site 01","29","F","Hispanic","Treatment B","2015-02-14","Y","2015-04-05","51","2016-02-15","367","Y","N","Visit 5","5","2015-11-21","281","Serum","Direct Bilirubin (µmol/L)","","0","5.1"
"01-008","01","Site 01","29","F","Hispanic","Treatment B","2015-02-14","Y","2015-04-05","51","2016-02-15","367","Y","N","Visit 5","5","2015-11-21","281","Serum","IgE (mg/L)","0.190729878491545","0.1","0.4"
"01-008","01","Site 01","29","F","Hispanic","Treatment B","2015-02-14","Y","2015-04-05","51","2016-02-15","367","Y","N","Visit 5","5","2015-11-21","281","Serum","Magnesium (mmol/L)","0.769615642913634","0.62","0.99"
"01-008","01","Site 01","29","F","Hispanic","Treatment B","2015-02-14","Y","2015-04-05","51","2016-02-15","367","Y","N","Visit 5","5","2015-11-21","281","Serum","Potassium (mmol/L)","","3.5","5"
"01-008","01","Site 01","29","F","Hispanic","Treatment B","2015-02-14","Y","2015-04-05","51","2016-02-15","367","Y","N","Visit 5","5","2015-11-21","281","Serum","Sodium (mmol/L)","138.497343932328","136","145"
"01-008","01","Site 01","29","F","Hispanic","Treatment B","2015-02-14","Y","2015-04-05","51","2016-02-15","367","Y","N","Visit 5","5","2015-11-21","281","Serum","Total Bilirubin (µmol/L)","0","5.1","20.5"
"01-008","01","Site 01","29","F","Hispanic","Treatment B","2015-02-14","Y","2015-04-05","51","2016-02-15","367","Y","N","Visit 6","6","2016-01-11","332","Blood","Platelet count (x 109/L)","195.26711878301","150","350"
"01-008","01","Site 01","29","F","Hispanic","Treatment B","2015-02-14","Y","2015-04-05","51","2016-02-15","367","Y","N","Visit 6","6","2016-01-11","332","Blood","RBC count (x 1012 cells/L)","","4.2","5.9"
"01-008","01","Site 01","29","F","Hispanic","Treatment B","2015-02-14","Y","2015-04-05","51","2016-02-15","367","Y","N","Visit 6","6","2016-01-11","332","Blood","WBC count (x 109 cells/L)","7.1153035122301","4.5","11"
"01-008","01","Site 01","29","F","Hispanic","Treatment B","2015-02-14","Y","2015-04-05","51","2016-02-15","367","Y","N","Visit 6","6","2016-01-11","332","Serum","Albumin (g/L)","47.2576666949737","35","55"
"01-008","01","Site 01","29","F","Hispanic","Treatment B","2015-02-14","Y","2015-04-05","51","2016-02-15","367","Y","N","Visit 6","6","2016-01-11","332","Serum","Alkaline phosphatase (ALP) (µkat/L)","0.470915452362633","0.5","1.5"
"01-008","01","Site 01","29","F","Hispanic","Treatment B","2015-02-14","Y","2015-04-05","51","2016-02-15","367","Y","N","Visit 6","6","2016-01-11","332","Serum","Aminotransferase, alanine (ALT) (pkat/L)","","0","0.58"
"01-008","01","Site 01","29","F","Hispanic","Treatment B","2015-02-14","Y","2015-04-05","51","2016-02-15","367","Y","N","Visit 6","6","2016-01-11","332","Serum","Aminotransferase, aspartate (AST) (pkat/L)","0.687490890603865","0","0.58"
"01-008","01","Site 01","29","F","Hispanic","Treatment B","2015-02-14","Y","2015-04-05","51","2016-02-15","367","Y","N","Visit 6","6","2016-01-11","332","Serum","Calcium (mmol/L)","","2.2","2.6"
"01-008","01","Site 01","29","F","Hispanic","Treatment B","2015-02-14","Y","2015-04-05","51","2016-02-15","367","Y","N","Visit 6","6","2016-01-11","332","Serum","Chloride (mmol/L)","103.622922065477","98","106"
"01-008","01","Site 01","29","F","Hispanic","Treatment B","2015-02-14","Y","2015-04-05","51","2016-02-15","367","Y","N","Visit 6","6","2016-01-11","332","Serum","Creatinine (µmol/L)","88.3073691497462","61.9","115"
"01-008","01","Site 01","29","F","Hispanic","Treatment B","2015-02-14","Y","2015-04-05","51","2016-02-15","367","Y","N","Visit 6","6","2016-01-11","332","Serum","Direct Bilirubin (µmol/L)","1.46654150714583","0","5.1"
"01-008","01","Site 01","29","F","Hispanic","Treatment B","2015-02-14","Y","2015-04-05","51","2016-02-15","367","Y","N","Visit 6","6","2016-01-11","332","Serum","IgE (mg/L)","0.0932940231198343","0.1","0.4"
"01-008","01","Site 01","29","F","Hispanic","Treatment B","2015-02-14","Y","2015-04-05","51","2016-02-15","367","Y","N","Visit 6","6","2016-01-11","332","Serum","Magnesium (mmol/L)","","0.62","0.99"
"01-008","01","Site 01","29","F","Hispanic","Treatment B","2015-02-14","Y","2015-04-05","51","2016-02-15","367","Y","N","Visit 6","6","2016-01-11","332","Serum","Potassium (mmol/L)","4.67061290661943","3.5","5"
"01-008","01","Site 01","29","F","Hispanic","Treatment B","2015-02-14","Y","2015-04-05","51","2016-02-15","367","Y","N","Visit 6","6","2016-01-11","332","Serum","Sodium (mmol/L)","140.011575118913","136","145"
"01-008","01","Site 01","29","F","Hispanic","Treatment B","2015-02-14","Y","2015-04-05","51","2016-02-15","367","Y","N","Visit 6","6","2016-01-11","332","Serum","Total Bilirubin (µmol/L)","0","5.1","20.5"
"01-008","01","Site 01","29","F","Hispanic","Treatment B","2015-02-14","Y","2015-04-05","51","2016-02-15","367","Y","N","End of Study","7","2016-02-15","367","Blood","Platelet count (x 109/L)","159.169671905121","150","350"
"01-008","01","Site 01","29","F","Hispanic","Treatment B","2015-02-14","Y","2015-04-05","51","2016-02-15","367","Y","N","End of Study","7","2016-02-15","367","Blood","RBC count (x 1012 cells/L)","5.02316112685716","4.2","5.9"
"01-008","01","Site 01","29","F","Hispanic","Treatment B","2015-02-14","Y","2015-04-05","51","2016-02-15","367","Y","N","End of Study","7","2016-02-15","367","Blood","WBC count (x 109 cells/L)","8.42339016413678","4.5","11"
"01-008","01","Site 01","29","F","Hispanic","Treatment B","2015-02-14","Y","2015-04-05","51","2016-02-15","367","Y","N","End of Study","7","2016-02-15","367","Serum","Albumin (g/L)","33.3565115629789","35","55"
"01-008","01","Site 01","29","F","Hispanic","Treatment B","2015-02-14","Y","2015-04-05","51","2016-02-15","367","Y","N","End of Study","7","2016-02-15","367","Serum","Alkaline phosphatase (ALP) (µkat/L)","0","0.5","1.5"
"01-008","01","Site 01","29","F","Hispanic","Treatment B","2015-02-14","Y","2015-04-05","51","2016-02-15","367","Y","N","End of Study","7","2016-02-15","367","Serum","Aminotransferase, alanine (ALT) (pkat/L)","0.615844967282719","0","0.58"
"01-008","01","Site 01","29","F","Hispanic","Treatment B","2015-02-14","Y","2015-04-05","51","2016-02-15","367","Y","N","End of Study","7","2016-02-15","367","Serum","Aminotransferase, aspartate (AST) (pkat/L)","0.645776593185982","0","0.58"
"01-008","01","Site 01","29","F","Hispanic","Treatment B","2015-02-14","Y","2015-04-05","51","2016-02-15","367","Y","N","End of Study","7","2016-02-15","367","Serum","Calcium (mmol/L)","2.49271018004554","2.2","2.6"
"01-008","01","Site 01","29","F","Hispanic","Treatment B","2015-02-14","Y","2015-04-05","51","2016-02-15","367","Y","N","End of Study","7","2016-02-15","367","Serum","Chloride (mmol/L)","","98","106"
"01-008","01","Site 01","29","F","Hispanic","Treatment B","2015-02-14","Y","2015-04-05","51","2016-02-15","367","Y","N","End of Study","7","2016-02-15","367","Serum","Creatinine (µmol/L)","81.448574112046","61.9","115"
"01-008","01","Site 01","29","F","Hispanic","Treatment B","2015-02-14","Y","2015-04-05","51","2016-02-15","367","Y","N","End of Study","7","2016-02-15","367","Serum","Direct Bilirubin (µmol/L)","","0","5.1"
"01-008","01","Site 01","29","F","Hispanic","Treatment B","2015-02-14","Y","2015-04-05","51","2016-02-15","367","Y","N","End of Study","7","2016-02-15","367","Serum","IgE (mg/L)","0.227571326770914","0.1","0.4"
"01-008","01","Site 01","29","F","Hispanic","Treatment B","2015-02-14","Y","2015-04-05","51","2016-02-15","367","Y","N","End of Study","7","2016-02-15","367","Serum","Magnesium (mmol/L)","0.60744222276649","0.62","0.99"
"01-008","01","Site 01","29","F","Hispanic","Treatment B","2015-02-14","Y","2015-04-05","51","2016-02-15","367","Y","N","End of Study","7","2016-02-15","367","Serum","Potassium (mmol/L)","4.54912010989528","3.5","5"
"01-008","01","Site 01","29","F","Hispanic","Treatment B","2015-02-14","Y","2015-04-05","51","2016-02-15","367","Y","N","End of Study","7","2016-02-15","367","Serum","Sodium (mmol/L)","144.97890323362","136","145"
"01-008","01","Site 01","29","F","Hispanic","Treatment B","2015-02-14","Y","2015-04-05","51","2016-02-15","367","Y","N","End of Study","7","2016-02-15","367","Serum","Total Bilirubin (µmol/L)","13.8703343873501","5.1","20.5"
"01-009","01","Site 01","53","F","Black","Treatment B","2015-11-22","Y","2016-01-21","61","2016-11-20","365","Y","Y","Screening","0","2015-11-22","1","Blood","Platelet count (x 109/L)","74.8114565323953","150","350"
"01-009","01","Site 01","53","F","Black","Treatment B","2015-11-22","Y","2016-01-21","61","2016-11-20","365","Y","Y","Screening","0","2015-11-22","1","Blood","RBC count (x 1012 cells/L)","3.55857577269819","4.2","5.9"
"01-009","01","Site 01","53","F","Black","Treatment B","2015-11-22","Y","2016-01-21","61","2016-11-20","365","Y","Y","Screening","0","2015-11-22","1","Blood","WBC count (x 109 cells/L)","10.1703192117102","4.5","11"
"01-009","01","Site 01","53","F","Black","Treatment B","2015-11-22","Y","2016-01-21","61","2016-11-20","365","Y","Y","Screening","0","2015-11-22","1","Serum","Albumin (g/L)","38.5304580271029","35","55"
"01-009","01","Site 01","53","F","Black","Treatment B","2015-11-22","Y","2016-01-21","61","2016-11-20","365","Y","Y","Screening","0","2015-11-22","1","Serum","Alkaline phosphatase (ALP) (µkat/L)","","0.5","1.5"
"01-009","01","Site 01","53","F","Black","Treatment B","2015-11-22","Y","2016-01-21","61","2016-11-20","365","Y","Y","Screening","0","2015-11-22","1","Serum","Aminotransferase, alanine (ALT) (pkat/L)","0.0858247496446498","0","0.58"
"01-009","01","Site 01","53","F","Black","Treatment B","2015-11-22","Y","2016-01-21","61","2016-11-20","365","Y","Y","Screening","0","2015-11-22","1","Serum","Aminotransferase, aspartate (AST) (pkat/L)","0.00101797751824223","0","0.58"
"01-009","01","Site 01","53","F","Black","Treatment B","2015-11-22","Y","2016-01-21","61","2016-11-20","365","Y","Y","Screening","0","2015-11-22","1","Serum","Calcium (mmol/L)","2.69031053275134","2.2","2.6"
"01-009","01","Site 01","53","F","Black","Treatment B","2015-11-22","Y","2016-01-21","61","2016-11-20","365","Y","Y","Screening","0","2015-11-22","1","Serum","Chloride (mmol/L)","110.993263758816","98","106"
"01-009","01","Site 01","53","F","Black","Treatment B","2015-11-22","Y","2016-01-21","61","2016-11-20","365","Y","Y","Screening","0","2015-11-22","1","Serum","Creatinine (µmol/L)","84.4268878568347","61.9","115"
"01-009","01","Site 01","53","F","Black","Treatment B","2015-11-22","Y","2016-01-21","61","2016-11-20","365","Y","Y","Screening","0","2015-11-22","1","Serum","Direct Bilirubin (µmol/L)","0","0","5.1"
"01-009","01","Site 01","53","F","Black","Treatment B","2015-11-22","Y","2016-01-21","61","2016-11-20","365","Y","Y","Screening","0","2015-11-22","1","Serum","IgE (mg/L)","0.0340886089768391","0.1","0.4"
"01-009","01","Site 01","53","F","Black","Treatment B","2015-11-22","Y","2016-01-21","61","2016-11-20","365","Y","Y","Screening","0","2015-11-22","1","Serum","Magnesium (mmol/L)","0.989167273101675","0.62","0.99"
"01-009","01","Site 01","53","F","Black","Treatment B","2015-11-22","Y","2016-01-21","61","2016-11-20","365","Y","Y","Screening","0","2015-11-22","1","Serum","Potassium (mmol/L)","4.54977211274216","3.5","5"
"01-009","01","Site 01","53","F","Black","Treatment B","2015-11-22","Y","2016-01-21","61","2016-11-20","365","Y","Y","Screening","0","2015-11-22","1","Serum","Sodium (mmol/L)","131.049801352124","136","145"
"01-009","01","Site 01","53","F","Black","Treatment B","2015-11-22","Y","2016-01-21","61","2016-11-20","365","Y","Y","Screening","0","2015-11-22","1","Serum","Total Bilirubin (µmol/L)","18.4302557594404","5.1","20.5"
"01-009","01","Site 01","53","F","Black","Treatment B","2015-11-22","Y","2016-01-21","61","2016-11-20","365","Y","Y","Visit 1","1","2016-01-21","61","Blood","Platelet count (x 109/L)","105.849100571981","150","350"
"01-009","01","Site 01","53","F","Black","Treatment B","2015-11-22","Y","2016-01-21","61","2016-11-20","365","Y","Y","Visit 1","1","2016-01-21","61","Blood","RBC count (x 1012 cells/L)","3.62711230703238","4.2","5.9"
"01-009","01","Site 01","53","F","Black","Treatment B","2015-11-22","Y","2016-01-21","61","2016-11-20","365","Y","Y","Visit 1","1","2016-01-21","61","Blood","WBC count (x 109 cells/L)","7.78613259983009","4.5","11"
"01-009","01","Site 01","53","F","Black","Treatment B","2015-11-22","Y","2016-01-21","61","2016-11-20","365","Y","Y","Visit 1","1","2016-01-21","61","Serum","Albumin (g/L)","64.1417793258478","35","55"
"01-009","01","Site 01","53","F","Black","Treatment B","2015-11-22","Y","2016-01-21","61","2016-11-20","365","Y","Y","Visit 1","1","2016-01-21","61","Serum","Alkaline phosphatase (ALP) (µkat/L)","0.938099682294335","0.5","1.5"
"01-009","01","Site 01","53","F","Black","Treatment B","2015-11-22","Y","2016-01-21","61","2016-11-20","365","Y","Y","Visit 1","1","2016-01-21","61","Serum","Aminotransferase, alanine (ALT) (pkat/L)","0.098800069569645","0","0.58"
"01-009","01","Site 01","53","F","Black","Treatment B","2015-11-22","Y","2016-01-21","61","2016-11-20","365","Y","Y","Visit 1","1","2016-01-21","61","Serum","Aminotransferase, aspartate (AST) (pkat/L)","0.730248515780857","0","0.58"
"01-009","01","Site 01","53","F","Black","Treatment B","2015-11-22","Y","2016-01-21","61","2016-11-20","365","Y","Y","Visit 1","1","2016-01-21","61","Serum","Calcium (mmol/L)","2.66571974395197","2.2","2.6"
"01-009","01","Site 01","53","F","Black","Treatment B","2015-11-22","Y","2016-01-21","61","2016-11-20","365","Y","Y","Visit 1","1","2016-01-21","61","Serum","Chloride (mmol/L)","","98","106"
"01-009","01","Site 01","53","F","Black","Treatment B","2015-11-22","Y","2016-01-21","61","2016-11-20","365","Y","Y","Visit 1","1","2016-01-21","61","Serum","Creatinine (µmol/L)","98.4523177596614","61.9","115"
"01-009","01","Site 01","53","F","Black","Treatment B","2015-11-22","Y","2016-01-21","61","2016-11-20","365","Y","Y","Visit 1","1","2016-01-21","61","Serum","Direct Bilirubin (µmol/L)","4.30791462358563","0","5.1"
"01-009","01","Site 01","53","F","Black","Treatment B","2015-11-22","Y","2016-01-21","61","2016-11-20","365","Y","Y","Visit 1","1","2016-01-21","61","Serum","IgE (mg/L)","0.19960290871534","0.1","0.4"
"01-009","01","Site 01","53","F","Black","Treatment B","2015-11-22","Y","2016-01-21","61","2016-11-20","365","Y","Y","Visit 1","1","2016-01-21","61","Serum","Magnesium (mmol/L)","0.90181361353344","0.62","0.99"
"01-009","01","Site 01","53","F","Black","Treatment B","2015-11-22","Y","2016-01-21","61","2016-11-20","365","Y","Y","Visit 1","1","2016-01-21","61","Serum","Potassium (mmol/L)","4.62034416666491","3.5","5"
"01-009","01","Site 01","53","F","Black","Treatment B","2015-11-22","Y","2016-01-21","61","2016-11-20","365","Y","Y","Visit 1","1","2016-01-21","61","Serum","Sodium (mmol/L)","150.962929265842","136","145"
"01-009","01","Site 01","53","F","Black","Treatment B","2015-11-22","Y","2016-01-21","61","2016-11-20","365","Y","Y","Visit 1","1","2016-01-21","61","Serum","Total Bilirubin (µmol/L)","18.1957001786857","5.1","20.5"
"01-009","01","Site 01","53","F","Black","Treatment B","2015-11-22","Y","2016-01-21","61","2016-11-20","365","Y","Y","Visit 2","2","2016-03-14","114","Blood","Platelet count (x 109/L)","0","150","350"
"01-009","01","Site 01","53","F","Black","Treatment B","2015-11-22","Y","2016-01-21","61","2016-11-20","365","Y","Y","Visit 2","2","2016-03-14","114","Blood","RBC count (x 1012 cells/L)","4.82577840158956","4.2","5.9"
"01-009","01","Site 01","53","F","Black","Treatment B","2015-11-22","Y","2016-01-21","61","2016-11-20","365","Y","Y","Visit 2","2","2016-03-14","114","Blood","WBC count (x 109 cells/L)","13.0772663162864","4.5","11"
"01-009","01","Site 01","53","F","Black","Treatment B","2015-11-22","Y","2016-01-21","61","2016-11-20","365","Y","Y","Visit 2","2","2016-03-14","114","Serum","Albumin (g/L)","31.9081193083819","35","55"
"01-009","01","Site 01","53","F","Black","Treatment B","2015-11-22","Y","2016-01-21","61","2016-11-20","365","Y","Y","Visit 2","2","2016-03-14","114","Serum","Alkaline phosphatase (ALP) (µkat/L)","1.06389681428687","0.5","1.5"
"01-009","01","Site 01","53","F","Black","Treatment B","2015-11-22","Y","2016-01-21","61","2016-11-20","365","Y","Y","Visit 2","2","2016-03-14","114","Serum","Aminotransferase, alanine (ALT) (pkat/L)","0.0383708313779023","0","0.58"
"01-009","01","Site 01","53","F","Black","Treatment B","2015-11-22","Y","2016-01-21","61","2016-11-20","365","Y","Y","Visit 2","2","2016-03-14","114","Serum","Aminotransferase, aspartate (AST) (pkat/L)","0.452917617454597","0","0.58"
"01-009","01","Site 01","53","F","Black","Treatment B","2015-11-22","Y","2016-01-21","61","2016-11-20","365","Y","Y","Visit 2","2","2016-03-14","114","Serum","Calcium (mmol/L)","2.60239733143281","2.2","2.6"
"01-009","01","Site 01","53","F","Black","Treatment B","2015-11-22","Y","2016-01-21","61","2016-11-20","365","Y","Y","Visit 2","2","2016-03-14","114","Serum","Chloride (mmol/L)","104.289182820192","98","106"
"01-009","01","Site 01","53","F","Black","Treatment B","2015-11-22","Y","2016-01-21","61","2016-11-20","365","Y","Y","Visit 2","2","2016-03-14","114","Serum","Creatinine (µmol/L)","53.8053534395966","61.9","115"
"01-009","01","Site 01","53","F","Black","Treatment B","2015-11-22","Y","2016-01-21","61","2016-11-20","365","Y","Y","Visit 2","2","2016-03-14","114","Serum","Direct Bilirubin (µmol/L)","1.94828304878412","0","5.1"
"01-009","01","Site 01","53","F","Black","Treatment B","2015-11-22","Y","2016-01-21","61","2016-11-20","365","Y","Y","Visit 2","2","2016-03-14","114","Serum","IgE (mg/L)","0.331202495007329","0.1","0.4"
"01-009","01","Site 01","53","F","Black","Treatment B","2015-11-22","Y","2016-01-21","61","2016-11-20","365","Y","Y","Visit 2","2","2016-03-14","114","Serum","Magnesium (mmol/L)","0.379099061398992","0.62","0.99"
"01-009","01","Site 01","53","F","Black","Treatment B","2015-11-22","Y","2016-01-21","61","2016-11-20","365","Y","Y","Visit 2","2","2016-03-14","114","Serum","Potassium (mmol/L)","3.33622350088539","3.5","5"
"01-009","01","Site 01","53","F","Black","Treatment B","2015-11-22","Y","2016-01-21","61","2016-11-20","365","Y","Y","Visit 2","2","2016-03-14","114","Serum","Sodium (mmol/L)","136.335136278789","136","145"
"01-009","01","Site 01","53","F","Black","Treatment B","2015-11-22","Y","2016-01-21","61","2016-11-20","365","Y","Y","Visit 2","2","2016-03-14","114","Serum","Total Bilirubin (µmol/L)","13.5933996296493","5.1","20.5"
"01-009","01","Site 01","53","F","Black","Treatment B","2015-11-22","Y","2016-01-21","61","2016-11-20","365","Y","Y","Visit 3","3","2016-05-01","162","Blood","Platelet count (x 109/L)","242.172201307118","150","350"
"01-009","01","Site 01","53","F","Black","Treatment B","2015-11-22","Y","2016-01-21","61","2016-11-20","365","Y","Y","Visit 3","3","2016-05-01","162","Blood","RBC count (x 1012 cells/L)","6.19523016957058","4.2","5.9"
"01-009","01","Site 01","53","F","Black","Treatment B","2015-11-22","Y","2016-01-21","61","2016-11-20","365","Y","Y","Visit 3","3","2016-05-01","162","Blood","WBC count (x 109 cells/L)","13.6857201905666","4.5","11"
"01-009","01","Site 01","53","F","Black","Treatment B","2015-11-22","Y","2016-01-21","61","2016-11-20","365","Y","Y","Visit 3","3","2016-05-01","162","Serum","Albumin (g/L)","29.2820529049613","35","55"
"01-009","01","Site 01","53","F","Black","Treatment B","2015-11-22","Y","2016-01-21","61","2016-11-20","365","Y","Y","Visit 3","3","2016-05-01","162","Serum","Alkaline phosphatase (ALP) (µkat/L)","0.895635875378645","0.5","1.5"
"01-009","01","Site 01","53","F","Black","Treatment B","2015-11-22","Y","2016-01-21","61","2016-11-20","365","Y","Y","Visit 3","3","2016-05-01","162","Serum","Aminotransferase, alanine (ALT) (pkat/L)","0.747083958083048","0","0.58"
"01-009","01","Site 01","53","F","Black","Treatment B","2015-11-22","Y","2016-01-21","61","2016-11-20","365","Y","Y","Visit 3","3","2016-05-01","162","Serum","Aminotransferase, aspartate (AST) (pkat/L)","0.151519733502232","0","0.58"
"01-009","01","Site 01","53","F","Black","Treatment B","2015-11-22","Y","2016-01-21","61","2016-11-20","365","Y","Y","Visit 3","3","2016-05-01","162","Serum","Calcium (mmol/L)","2.49473508118884","2.2","2.6"
"01-009","01","Site 01","53","F","Black","Treatment B","2015-11-22","Y","2016-01-21","61","2016-11-20","365","Y","Y","Visit 3","3","2016-05-01","162","Serum","Chloride (mmol/L)","101.778270428613","98","106"
"01-009","01","Site 01","53","F","Black","Treatment B","2015-11-22","Y","2016-01-21","61","2016-11-20","365","Y","Y","Visit 3","3","2016-05-01","162","Serum","Creatinine (µmol/L)","83.8694571442666","61.9","115"
"01-009","01","Site 01","53","F","Black","Treatment B","2015-11-22","Y","2016-01-21","61","2016-11-20","365","Y","Y","Visit 3","3","2016-05-01","162","Serum","Direct Bilirubin (µmol/L)","4.54421873978759","0","5.1"
"01-009","01","Site 01","53","F","Black","Treatment B","2015-11-22","Y","2016-01-21","61","2016-11-20","365","Y","Y","Visit 3","3","2016-05-01","162","Serum","IgE (mg/L)","","0.1","0.4"
"01-009","01","Site 01","53","F","Black","Treatment B","2015-11-22","Y","2016-01-21","61","2016-11-20","365","Y","Y","Visit 3","3","2016-05-01","162","Serum","Magnesium (mmol/L)","0.903339657326743","0.62","0.99"
"01-009","01","Site 01","53","F","Black","Treatment B","2015-11-22","Y","2016-01-21","61","2016-11-20","365","Y","Y","Visit 3","3","2016-05-01","162","Serum","Potassium (mmol/L)","4.66993837110721","3.5","5"
"01-009","01","Site 01","53","F","Black","Treatment B","2015-11-22","Y","2016-01-21","61","2016-11-20","365","Y","Y","Visit 3","3","2016-05-01","162","Serum","Sodium (mmol/L)","","136","145"
"01-009","01","Site 01","53","F","Black","Treatment B","2015-11-22","Y","2016-01-21","61","2016-11-20","365","Y","Y","Visit 3","3","2016-05-01","162","Serum","Total Bilirubin (µmol/L)","19.1624062175994","5.1","20.5"
"01-009","01","Site 01","53","F","Black","Treatment B","2015-11-22","Y","2016-01-21","61","2016-11-20","365","Y","Y","Visit 4","4","2016-06-28","220","Blood","Platelet count (x 109/L)","355.005139971459","150","350"
"01-009","01","Site 01","53","F","Black","Treatment B","2015-11-22","Y","2016-01-21","61","2016-11-20","365","Y","Y","Visit 4","4","2016-06-28","220","Blood","RBC count (x 1012 cells/L)","4.25623744022001","4.2","5.9"
"01-009","01","Site 01","53","F","Black","Treatment B","2015-11-22","Y","2016-01-21","61","2016-11-20","365","Y","Y","Visit 4","4","2016-06-28","220","Blood","WBC count (x 109 cells/L)","5.81290909168972","4.5","11"
"01-009","01","Site 01","53","F","Black","Treatment B","2015-11-22","Y","2016-01-21","61","2016-11-20","365","Y","Y","Visit 4","4","2016-06-28","220","Serum","Albumin (g/L)","38.5437233399102","35","55"
"01-009","01","Site 01","53","F","Black","Treatment B","2015-11-22","Y","2016-01-21","61","2016-11-20","365","Y","Y","Visit 4","4","2016-06-28","220","Serum","Alkaline phosphatase (ALP) (µkat/L)","1.23896418734159","0.5","1.5"
"01-009","01","Site 01","53","F","Black","Treatment B","2015-11-22","Y","2016-01-21","61","2016-11-20","365","Y","Y","Visit 4","4","2016-06-28","220","Serum","Aminotransferase, alanine (ALT) (pkat/L)","0.156308329046358","0","0.58"
"01-009","01","Site 01","53","F","Black","Treatment B","2015-11-22","Y","2016-01-21","61","2016-11-20","365","Y","Y","Visit 4","4","2016-06-28","220","Serum","Aminotransferase, aspartate (AST) (pkat/L)","0.472501595829386","0","0.58"
"01-009","01","Site 01","53","F","Black","Treatment B","2015-11-22","Y","2016-01-21","61","2016-11-20","365","Y","Y","Visit 4","4","2016-06-28","220","Serum","Calcium (mmol/L)","2.21519978980413","2.2","2.6"
"01-009","01","Site 01","53","F","Black","Treatment B","2015-11-22","Y","2016-01-21","61","2016-11-20","365","Y","Y","Visit 4","4","2016-06-28","220","Serum","Chloride (mmol/L)","108.606075307871","98","106"
"01-009","01","Site 01","53","F","Black","Treatment B","2015-11-22","Y","2016-01-21","61","2016-11-20","365","Y","Y","Visit 4","4","2016-06-28","220","Serum","Creatinine (µmol/L)","96.2949933175927","61.9","115"
"01-009","01","Site 01","53","F","Black","Treatment B","2015-11-22","Y","2016-01-21","61","2016-11-20","365","Y","Y","Visit 4","4","2016-06-28","220","Serum","Direct Bilirubin (µmol/L)","2.59508906583357","0","5.1"
"01-009","01","Site 01","53","F","Black","Treatment B","2015-11-22","Y","2016-01-21","61","2016-11-20","365","Y","Y","Visit 4","4","2016-06-28","220","Serum","IgE (mg/L)","0.549068357290987","0.1","0.4"
"01-009","01","Site 01","53","F","Black","Treatment B","2015-11-22","Y","2016-01-21","61","2016-11-20","365","Y","Y","Visit 4","4","2016-06-28","220","Serum","Magnesium (mmol/L)","0.389545401697899","0.62","0.99"
"01-009","01","Site 01","53","F","Black","Treatment B","2015-11-22","Y","2016-01-21","61","2016-11-20","365","Y","Y","Visit 4","4","2016-06-28","220","Serum","Potassium (mmol/L)","6.26548744942016","3.5","5"
"01-009","01","Site 01","53","F","Black","Treatment B","2015-11-22","Y","2016-01-21","61","2016-11-20","365","Y","Y","Visit 4","4","2016-06-28","220","Serum","Sodium (mmol/L)","143.037407900905","136","145"
"01-009","01","Site 01","53","F","Black","Treatment B","2015-11-22","Y","2016-01-21","61","2016-11-20","365","Y","Y","Visit 4","4","2016-06-28","220","Serum","Total Bilirubin (µmol/L)","","5.1","20.5"
"01-009","01","Site 01","53","F","Black","Treatment B","2015-11-22","Y","2016-01-21","61","2016-11-20","365","Y","Y","Visit 5","5","2016-08-23","276","Blood","Platelet count (x 109/L)","260.542765943318","150","350"
"01-009","01","Site 01","53","F","Black","Treatment B","2015-11-22","Y","2016-01-21","61","2016-11-20","365","Y","Y","Visit 5","5","2016-08-23","276","Blood","RBC count (x 1012 cells/L)","4.92324004941747","4.2","5.9"
"01-009","01","Site 01","53","F","Black","Treatment B","2015-11-22","Y","2016-01-21","61","2016-11-20","365","Y","Y","Visit 5","5","2016-08-23","276","Blood","WBC count (x 109 cells/L)","","4.5","11"
"01-009","01","Site 01","53","F","Black","Treatment B","2015-11-22","Y","2016-01-21","61","2016-11-20","365","Y","Y","Visit 5","5","2016-08-23","276","Serum","Albumin (g/L)","51.3543191553523","35","55"
"01-009","01","Site 01","53","F","Black","Treatment B","2015-11-22","Y","2016-01-21","61","2016-11-20","365","Y","Y","Visit 5","5","2016-08-23","276","Serum","Alkaline phosphatase (ALP) (µkat/L)","0.887609696188432","0.5","1.5"
