"STUDYID","RDOMAIN","USUBJID","IDVAR","IDVARVAL","QNAM","QLABEL","QVAL","QORIG","QEVAL"
"CDISCPILOT01","DM","01-701-1015",NA,NA,"COMPLT16","Completers of Week 16 Population Flag","Y","DERIVED","CLINICAL STUDY SPONSOR"
"CDISCPILOT01","DM","01-701-1015",NA,NA,"COMPLT24","Completers of Week 24 Population Flag","Y","DERIVED","CLINICAL STUDY SPONSOR"
"CDISCPILOT01","DM","01-701-1015",NA,NA,"COMPLT8","Completers of Week 8 Population Flag","Y","DERIVED","CLINICAL STUDY SPONSOR"
"CDISCPILOT01","DM","01-701-1015",NA,NA,"EFFICACY","Efficacy Population Flag","Y","DERIVED","CLINICAL STUDY SPONSOR"
"CDISCPILOT01","DM","01-701-1015",NA,NA,"ITT","Intent to Treat Population Flag","Y","DERIVED","CLINICAL STUDY SPONSOR"
"CDISCPILOT01","DM","01-701-1015",NA,NA,"SAFETY","Safety Population Flag","Y","DERIVED","CLINICAL STUDY SPONSOR"
"CDISCPILOT01","DM","01-701-1023",NA,NA,"EFFICACY","Efficacy Population Flag","Y","DERIVED","CLINICAL STUDY SPONSOR"
"CDISCPILOT01","DM","01-701-1023",NA,NA,"ITT","Intent to Treat Population Flag","Y","DERIVED","CLINICAL STUDY SPONSOR"
"CDISCPILOT01","DM","01-701-1023",NA,NA,"SAFETY","Safety Population Flag","Y","DERIVED","CLINICAL STUDY SPONSOR"
"CDISCPILOT01","DM","01-701-1028",NA,NA,"COMPLT16","Completers of Week 16 Population Flag","Y","DERIVED","CLINICAL STUDY SPONSOR"
"CDISCPILOT01","DM","01-701-1028",NA,NA,"COMPLT24","Completers of Week 24 Population Flag","Y","DERIVED","CLINICAL STUDY SPONSOR"
"CDISCPILOT01","DM","01-701-1028",NA,NA,"COMPLT8","Completers of Week 8 Population Flag","Y","DERIVED","CLINICAL STUDY SPONSOR"
"CDISCPILOT01","DM","01-701-1028",NA,NA,"EFFICACY","Efficacy Population Flag","Y","DERIVED","CLINICAL STUDY SPONSOR"
"CDISCPILOT01","DM","01-701-1028",NA,NA,"ITT","Intent to Treat Population Flag","Y","DERIVED","CLINICAL STUDY SPONSOR"
"CDISCPILOT01","DM","01-701-1028",NA,NA,"SAFETY","Safety Population Flag","Y","DERIVED","CLINICAL STUDY SPONSOR"
"CDISCPILOT01","DM","01-701-1033",NA,NA,"EFFICACY","Efficacy Population Flag","Y","DERIVED","CLINICAL STUDY SPONSOR"
"CDISCPILOT01","DM","01-701-1033",NA,NA,"ITT","Intent to Treat Population Flag","Y","DERIVED","CLINICAL STUDY SPONSOR"
"CDISCPILOT01","DM","01-701-1033",NA,NA,"SAFETY","Safety Population Flag","Y","DERIVED","CLINICAL STUDY SPONSOR"
"CDISCPILOT01","DM","01-701-1034",NA,NA,"COMPLT16","Completers of Week 16 Population Flag","Y","DERIVED","CLINICAL STUDY SPONSOR"
"CDISCPILOT01","DM","01-701-1034",NA,NA,"COMPLT24","Completers of Week 24 Population Flag","Y","DERIVED","CLINICAL STUDY SPONSOR"
"CDISCPILOT01","DM","01-701-1034",NA,NA,"COMPLT8","Completers of Week 8 Population Flag","Y","DERIVED","CLINICAL STUDY SPONSOR"
"CDISCPILOT01","DM","01-701-1034",NA,NA,"EFFICACY","Efficacy Population Flag","Y","DERIVED","CLINICAL STUDY SPONSOR"
"CDISCPILOT01","DM","01-701-1034",NA,NA,"ITT","Intent to Treat Population Flag","Y","DERIVED","CLINICAL STUDY SPONSOR"
"CDISCPILOT01","DM","01-701-1034",NA,NA,"SAFETY","Safety Population Flag","Y","DERIVED","CLINICAL STUDY SPONSOR"
"CDISCPILOT01","DM","01-701-1047",NA,NA,"EFFICACY","Efficacy Population Flag","Y","DERIVED","CLINICAL STUDY SPONSOR"
"CDISCPILOT01","DM","01-701-1047",NA,NA,"ITT","Intent to Treat Population Flag","Y","DERIVED","CLINICAL STUDY SPONSOR"
"CDISCPILOT01","DM","01-701-1047",NA,NA,"SAFETY","Safety Population Flag","Y","DERIVED","CLINICAL STUDY SPONSOR"
"CDISCPILOT01","DM","01-701-1097",NA,NA,"COMPLT16","Completers of Week 16 Population Flag","Y","DERIVED","CLINICAL STUDY SPONSOR"
"CDISCPILOT01","DM","01-701-1097",NA,NA,"COMPLT24","Completers of Week 24 Population Flag","Y","DERIVED","CLINICAL STUDY SPONSOR"
"CDISCPILOT01","DM","01-701-1097",NA,NA,"COMPLT8","Completers of Week 8 Population Flag","Y","DERIVED","CLINICAL STUDY SPONSOR"
"CDISCPILOT01","DM","01-701-1097",NA,NA,"EFFICACY","Efficacy Population Flag","Y","DERIVED","CLINICAL STUDY SPONSOR"
"CDISCPILOT01","DM","01-701-1097",NA,NA,"ITT","Intent to Treat Population Flag","Y","DERIVED","CLINICAL STUDY SPONSOR"
"CDISCPILOT01","DM","01-701-1097",NA,NA,"SAFETY","Safety Population Flag","Y","DERIVED","CLINICAL STUDY SPONSOR"
"CDISCPILOT01","DM","01-701-1111",NA,NA,"EFFICACY","Efficacy Population Flag","Y","DERIVED","CLINICAL STUDY SPONSOR"
"CDISCPILOT01","DM","01-701-1111",NA,NA,"ITT","Intent to Treat Population Flag","Y","DERIVED","CLINICAL STUDY SPONSOR"
"CDISCPILOT01","DM","01-701-1111",NA,NA,"SAFETY","Safety Population Flag","Y","DERIVED","CLINICAL STUDY SPONSOR"
"CDISCPILOT01","DM","01-701-1115",NA,NA,"COMPLT8","Completers of Week 8 Population Flag","Y","DERIVED","CLINICAL STUDY SPONSOR"
"CDISCPILOT01","DM","01-701-1115",NA,NA,"EFFICACY","Efficacy Population Flag","Y","DERIVED","CLINICAL STUDY SPONSOR"
"CDISCPILOT01","DM","01-701-1115",NA,NA,"ITT","Intent to Treat Population Flag","Y","DERIVED","CLINICAL STUDY SPONSOR"
"CDISCPILOT01","DM","01-701-1115",NA,NA,"SAFETY","Safety Population Flag","Y","DERIVED","CLINICAL STUDY SPONSOR"
"CDISCPILOT01","DM","01-701-1118",NA,NA,"COMPLT16","Completers of Week 16 Population Flag","Y","DERIVED","CLINICAL STUDY SPONSOR"
"CDISCPILOT01","DM","01-701-1118",NA,NA,"COMPLT24","Completers of Week 24 Population Flag","Y","DERIVED","CLINICAL STUDY SPONSOR"
"CDISCPILOT01","DM","01-701-1118",NA,NA,"COMPLT8","Completers of Week 8 Population Flag","Y","DERIVED","CLINICAL STUDY SPONSOR"
"CDISCPILOT01","DM","01-701-1118",NA,NA,"EFFICACY","Efficacy Population Flag","Y","DERIVED","CLINICAL STUDY SPONSOR"
"CDISCPILOT01","DM","01-701-1118",NA,NA,"ITT","Intent to Treat Population Flag","Y","DERIVED","CLINICAL STUDY SPONSOR"
"CDISCPILOT01","DM","01-701-1118",NA,NA,"SAFETY","Safety Population Flag","Y","DERIVED","CLINICAL STUDY SPONSOR"
"CDISCPILOT01","DM","01-701-1130",NA,NA,"COMPLT16","Completers of Week 16 Population Flag","Y","DERIVED","CLINICAL STUDY SPONSOR"
"CDISCPILOT01","DM","01-701-1130",NA,NA,"COMPLT24","Completers of Week 24 Population Flag","Y","DERIVED","CLINICAL STUDY SPONSOR"
"CDISCPILOT01","DM","01-701-1130",NA,NA,"COMPLT8","Completers of Week 8 Population Flag","Y","DERIVED","CLINICAL STUDY SPONSOR"
"CDISCPILOT01","DM","01-701-1130",NA,NA,"EFFICACY","Efficacy Population Flag","Y","DERIVED","CLINICAL STUDY SPONSOR"
"CDISCPILOT01","DM","01-701-1130",NA,NA,"ITT","Intent to Treat Population Flag","Y","DERIVED","CLINICAL STUDY SPONSOR"
"CDISCPILOT01","DM","01-701-1130",NA,NA,"SAFETY","Safety Population Flag","Y","DERIVED","CLINICAL STUDY SPONSOR"
"CDISCPILOT01","DM","01-701-1133",NA,NA,"COMPLT16","Completers of Week 16 Population Flag","Y","DERIVED","CLINICAL STUDY SPONSOR"
"CDISCPILOT01","DM","01-701-1133",NA,NA,"COMPLT24","Completers of Week 24 Population Flag","Y","DERIVED","CLINICAL STUDY SPONSOR"
"CDISCPILOT01","DM","01-701-1133",NA,NA,"COMPLT8","Completers of Week 8 Population Flag","Y","DERIVED","CLINICAL STUDY SPONSOR"
"CDISCPILOT01","DM","01-701-1133",NA,NA,"EFFICACY","Efficacy Population Flag","Y","DERIVED","CLINICAL STUDY SPONSOR"
"CDISCPILOT01","DM","01-701-1133",NA,NA,"ITT","Intent to Treat Population Flag","Y","DERIVED","CLINICAL STUDY SPONSOR"
"CDISCPILOT01","DM","01-701-1133",NA,NA,"SAFETY","Safety Population Flag","Y","DERIVED","CLINICAL STUDY SPONSOR"
"CDISCPILOT01","DM","01-701-1146",NA,NA,"EFFICACY","Efficacy Population Flag","Y","DERIVED","CLINICAL STUDY SPONSOR"
"CDISCPILOT01","DM","01-701-1146",NA,NA,"ITT","Intent to Treat Population Flag","Y","DERIVED","CLINICAL STUDY SPONSOR"
"CDISCPILOT01","DM","01-701-1146",NA,NA,"SAFETY","Safety Population Flag","Y","DERIVED","CLINICAL STUDY SPONSOR"
"CDISCPILOT01","DM","01-701-1148",NA,NA,"COMPLT16","Completers of Week 16 Population Flag","Y","DERIVED","CLINICAL STUDY SPONSOR"
"CDISCPILOT01","DM","01-701-1148",NA,NA,"COMPLT24","Completers of Week 24 Population Flag","Y","DERIVED","CLINICAL STUDY SPONSOR"
"CDISCPILOT01","DM","01-701-1148",NA,NA,"COMPLT8","Completers of Week 8 Population Flag","Y","DERIVED","CLINICAL STUDY SPONSOR"
"CDISCPILOT01","DM","01-701-1148",NA,NA,"EFFICACY","Efficacy Population Flag","Y","DERIVED","CLINICAL STUDY SPONSOR"
"CDISCPILOT01","DM","01-701-1148",NA,NA,"ITT","Intent to Treat Population Flag","Y","DERIVED","CLINICAL STUDY SPONSOR"
"CDISCPILOT01","DM","01-701-1148",NA,NA,"SAFETY","Safety Population Flag","Y","DERIVED","CLINICAL STUDY SPONSOR"
"CDISCPILOT01","DM","01-701-1153",NA,NA,"COMPLT16","Completers of Week 16 Population Flag","Y","DERIVED","CLINICAL STUDY SPONSOR"
"CDISCPILOT01","DM","01-701-1153",NA,NA,"COMPLT24","Completers of Week 24 Population Flag","Y","DERIVED","CLINICAL STUDY SPONSOR"
"CDISCPILOT01","DM","01-701-1153",NA,NA,"COMPLT8","Completers of Week 8 Population Flag","Y","DERIVED","CLINICAL STUDY SPONSOR"
"CDISCPILOT01","DM","01-701-1153",NA,NA,"EFFICACY","Efficacy Population Flag","Y","DERIVED","CLINICAL STUDY SPONSOR"
"CDISCPILOT01","DM","01-701-1153",NA,NA,"ITT","Intent to Treat Population Flag","Y","DERIVED","CLINICAL STUDY SPONSOR"
"CDISCPILOT01","DM","01-701-1153",NA,NA,"SAFETY","Safety Population Flag","Y","DERIVED","CLINICAL STUDY SPONSOR"
"CDISCPILOT01","DM","01-701-1180",NA,NA,"EFFICACY","Efficacy Population Flag","Y","DERIVED","CLINICAL STUDY SPONSOR"
"CDISCPILOT01","DM","01-701-1180",NA,NA,"ITT","Intent to Treat Population Flag","Y","DERIVED","CLINICAL STUDY SPONSOR"
"CDISCPILOT01","DM","01-701-1180",NA,NA,"SAFETY","Safety Population Flag","Y","DERIVED","CLINICAL STUDY SPONSOR"
"CDISCPILOT01","DM","01-701-1181",NA,NA,"EFFICACY","Efficacy Population Flag","Y","DERIVED","CLINICAL STUDY SPONSOR"
"CDISCPILOT01","DM","01-701-1181",NA,NA,"ITT","Intent to Treat Population Flag","Y","DERIVED","CLINICAL STUDY SPONSOR"
"CDISCPILOT01","DM","01-701-1181",NA,NA,"SAFETY","Safety Population Flag","Y","DERIVED","CLINICAL STUDY SPONSOR"
"CDISCPILOT01","DM","01-701-1188",NA,NA,"EFFICACY","Efficacy Population Flag","Y","DERIVED","CLINICAL STUDY SPONSOR"
"CDISCPILOT01","DM","01-701-1188",NA,NA,"ITT","Intent to Treat Population Flag","Y","DERIVED","CLINICAL STUDY SPONSOR"
"CDISCPILOT01","DM","01-701-1188",NA,NA,"SAFETY","Safety Population Flag","Y","DERIVED","CLINICAL STUDY SPONSOR"
"CDISCPILOT01","DM","01-701-1192",NA,NA,"COMPLT16","Completers of Week 16 Population Flag","Y","DERIVED","CLINICAL STUDY SPONSOR"
"CDISCPILOT01","DM","01-701-1192",NA,NA,"COMPLT24","Completers of Week 24 Population Flag","Y","DERIVED","CLINICAL STUDY SPONSOR"
"CDISCPILOT01","DM","01-701-1192",NA,NA,"COMPLT8","Completers of Week 8 Population Flag","Y","DERIVED","CLINICAL STUDY SPONSOR"
"CDISCPILOT01","DM","01-701-1192",NA,NA,"EFFICACY","Efficacy Population Flag","Y","DERIVED","CLINICAL STUDY SPONSOR"
"CDISCPILOT01","DM","01-701-1192",NA,NA,"ITT","Intent to Treat Population Flag","Y","DERIVED","CLINICAL STUDY SPONSOR"
"CDISCPILOT01","DM","01-701-1192",NA,NA,"SAFETY","Safety Population Flag","Y","DERIVED","CLINICAL STUDY SPONSOR"
"CDISCPILOT01","DM","01-701-1203",NA,NA,"COMPLT16","Completers of Week 16 Population Flag","Y","DERIVED","CLINICAL STUDY SPONSOR"
"CDISCPILOT01","DM","01-701-1203",NA,NA,"COMPLT24","Completers of Week 24 Population Flag","Y","DERIVED","CLINICAL STUDY SPONSOR"
"CDISCPILOT01","DM","01-701-1203",NA,NA,"COMPLT8","Completers of Week 8 Population Flag","Y","DERIVED","CLINICAL STUDY SPONSOR"
"CDISCPILOT01","DM","01-701-1203",NA,NA,"EFFICACY","Efficacy Population Flag","Y","DERIVED","CLINICAL STUDY SPONSOR"
"CDISCPILOT01","DM","01-701-1203",NA,NA,"ITT","Intent to Treat Population Flag","Y","DERIVED","CLINICAL STUDY SPONSOR"
"CDISCPILOT01","DM","01-701-1203",NA,NA,"SAFETY","Safety Population Flag","Y","DERIVED","CLINICAL STUDY SPONSOR"
"CDISCPILOT01","DM","01-701-1211",NA,NA,"COMPLT8","Completers of Week 8 Population Flag","Y","DERIVED","CLINICAL STUDY SPONSOR"
"CDISCPILOT01","DM","01-701-1211",NA,NA,"EFFICACY","Efficacy Population Flag","Y","DERIVED","CLINICAL STUDY SPONSOR"
"CDISCPILOT01","DM","01-701-1211",NA,NA,"ITT","Intent to Treat Population Flag","Y","DERIVED","CLINICAL STUDY SPONSOR"
"CDISCPILOT01","DM","01-701-1211",NA,NA,"SAFETY","Safety Population Flag","Y","DERIVED","CLINICAL STUDY SPONSOR"
"CDISCPILOT01","DM","01-701-1234",NA,NA,"COMPLT16","Completers of Week 16 Population Flag","Y","DERIVED","CLINICAL STUDY SPONSOR"
"CDISCPILOT01","DM","01-701-1234",NA,NA,"COMPLT24","Completers of Week 24 Population Flag","Y","DERIVED","CLINICAL STUDY SPONSOR"
"CDISCPILOT01","DM","01-701-1234",NA,NA,"COMPLT8","Completers of Week 8 Population Flag","Y","DERIVED","CLINICAL STUDY SPONSOR"
"CDISCPILOT01","DM","01-701-1234",NA,NA,"EFFICACY","Efficacy Population Flag","Y","DERIVED","CLINICAL STUDY SPONSOR"
"CDISCPILOT01","DM","01-701-1234",NA,NA,"ITT","Intent to Treat Population Flag","Y","DERIVED","CLINICAL STUDY SPONSOR"
"CDISCPILOT01","DM","01-701-1234",NA,NA,"SAFETY","Safety Population Flag","Y","DERIVED","CLINICAL STUDY SPONSOR"
"CDISCPILOT01","DM","01-701-1239",NA,NA,"COMPLT16","Completers of Week 16 Population Flag","Y","DERIVED","CLINICAL STUDY SPONSOR"
"CDISCPILOT01","DM","01-701-1239",NA,NA,"COMPLT24","Completers of Week 24 Population Flag","Y","DERIVED","CLINICAL STUDY SPONSOR"
"CDISCPILOT01","DM","01-701-1239",NA,NA,"COMPLT8","Completers of Week 8 Population Flag","Y","DERIVED","CLINICAL STUDY SPONSOR"
"CDISCPILOT01","DM","01-701-1239",NA,NA,"EFFICACY","Efficacy Population Flag","Y","DERIVED","CLINICAL STUDY SPONSOR"
"CDISCPILOT01","DM","01-701-1239",NA,NA,"ITT","Intent to Treat Population Flag","Y","DERIVED","CLINICAL STUDY SPONSOR"
"CDISCPILOT01","DM","01-701-1239",NA,NA,"SAFETY","Safety Population Flag","Y","DERIVED","CLINICAL STUDY SPONSOR"
"CDISCPILOT01","DM","01-701-1275",NA,NA,"COMPLT16","Completers of Week 16 Population Flag","Y","DERIVED","CLINICAL STUDY SPONSOR"
"CDISCPILOT01","DM","01-701-1275",NA,NA,"COMPLT8","Completers of Week 8 Population Flag","Y","DERIVED","CLINICAL STUDY SPONSOR"
"CDISCPILOT01","DM","01-701-1275",NA,NA,"EFFICACY","Efficacy Population Flag","Y","DERIVED","CLINICAL STUDY SPONSOR"
"CDISCPILOT01","DM","01-701-1275",NA,NA,"ITT","Intent to Treat Population Flag","Y","DERIVED","CLINICAL STUDY SPONSOR"
"CDISCPILOT01","DM","01-701-1275",NA,NA,"SAFETY","Safety Population Flag","Y","DERIVED","CLINICAL STUDY SPONSOR"
"CDISCPILOT01","DM","01-701-1287",NA,NA,"COMPLT16","Completers of Week 16 Population Flag","Y","DERIVED","CLINICAL STUDY SPONSOR"
"CDISCPILOT01","DM","01-701-1287",NA,NA,"COMPLT24","Completers of Week 24 Population Flag","Y","DERIVED","CLINICAL STUDY SPONSOR"
"CDISCPILOT01","DM","01-701-1287",NA,NA,"COMPLT8","Completers of Week 8 Population Flag","Y","DERIVED","CLINICAL STUDY SPONSOR"
"CDISCPILOT01","DM","01-701-1287",NA,NA,"EFFICACY","Efficacy Population Flag","Y","DERIVED","CLINICAL STUDY SPONSOR"
"CDISCPILOT01","DM","01-701-1287",NA,NA,"ITT","Intent to Treat Population Flag","Y","DERIVED","CLINICAL STUDY SPONSOR"
"CDISCPILOT01","DM","01-701-1287",NA,NA,"SAFETY","Safety Population Flag","Y","DERIVED","CLINICAL STUDY SPONSOR"
"CDISCPILOT01","DM","01-701-1294",NA,NA,"COMPLT8","Completers of Week 8 Population Flag","Y","DERIVED","CLINICAL STUDY SPONSOR"
"CDISCPILOT01","DM","01-701-1294",NA,NA,"EFFICACY","Efficacy Population Flag","Y","DERIVED","CLINICAL STUDY SPONSOR"
"CDISCPILOT01","DM","01-701-1294",NA,NA,"ITT","Intent to Treat Population Flag","Y","DERIVED","CLINICAL STUDY SPONSOR"
"CDISCPILOT01","DM","01-701-1294",NA,NA,"SAFETY","Safety Population Flag","Y","DERIVED","CLINICAL STUDY SPONSOR"
"CDISCPILOT01","DM","01-701-1302",NA,NA,"COMPLT8","Completers of Week 8 Population Flag","Y","DERIVED","CLINICAL STUDY SPONSOR"
"CDISCPILOT01","DM","01-701-1302",NA,NA,"EFFICACY","Efficacy Population Flag","Y","DERIVED","CLINICAL STUDY SPONSOR"
"CDISCPILOT01","DM","01-701-1302",NA,NA,"ITT","Intent to Treat Population Flag","Y","DERIVED","CLINICAL STUDY SPONSOR"
"CDISCPILOT01","DM","01-701-1302",NA,NA,"SAFETY","Safety Population Flag","Y","DERIVED","CLINICAL STUDY SPONSOR"
"CDISCPILOT01","DM","01-701-1317",NA,NA,"COMPLT16","Completers of Week 16 Population Flag","Y","DERIVED","CLINICAL STUDY SPONSOR"
"CDISCPILOT01","DM","01-701-1317",NA,NA,"COMPLT24","Completers of Week 24 Population Flag","Y","DERIVED","CLINICAL STUDY SPONSOR"
"CDISCPILOT01","DM","01-701-1317",NA,NA,"COMPLT8","Completers of Week 8 Population Flag","Y","DERIVED","CLINICAL STUDY SPONSOR"
"CDISCPILOT01","DM","01-701-1317",NA,NA,"EFFICACY","Efficacy Population Flag","Y","DERIVED","CLINICAL STUDY SPONSOR"
"CDISCPILOT01","DM","01-701-1317",NA,NA,"ITT","Intent to Treat Population Flag","Y","DERIVED","CLINICAL STUDY SPONSOR"
"CDISCPILOT01","DM","01-701-1317",NA,NA,"SAFETY","Safety Population Flag","Y","DERIVED","CLINICAL STUDY SPONSOR"
"CDISCPILOT01","DM","01-701-1324",NA,NA,"COMPLT16","Completers of Week 16 Population Flag","Y","DERIVED","CLINICAL STUDY SPONSOR"
"CDISCPILOT01","DM","01-701-1324",NA,NA,"COMPLT24","Completers of Week 24 Population Flag","Y","DERIVED","CLINICAL STUDY SPONSOR"
"CDISCPILOT01","DM","01-701-1324",NA,NA,"COMPLT8","Completers of Week 8 Population Flag","Y","DERIVED","CLINICAL STUDY SPONSOR"
"CDISCPILOT01","DM","01-701-1324",NA,NA,"EFFICACY","Efficacy Population Flag","Y","DERIVED","CLINICAL STUDY SPONSOR"
"CDISCPILOT01","DM","01-701-1324",NA,NA,"ITT","Intent to Treat Population Flag","Y","DERIVED","CLINICAL STUDY SPONSOR"
"CDISCPILOT01","DM","01-701-1324",NA,NA,"SAFETY","Safety Population Flag","Y","DERIVED","CLINICAL STUDY SPONSOR"
"CDISCPILOT01","DM","01-701-1341",NA,NA,"EFFICACY","Efficacy Population Flag","Y","DERIVED","CLINICAL STUDY SPONSOR"
"CDISCPILOT01","DM","01-701-1341",NA,NA,"ITT","Intent to Treat Population Flag","Y","DERIVED","CLINICAL STUDY SPONSOR"
"CDISCPILOT01","DM","01-701-1341",NA,NA,"SAFETY","Safety Population Flag","Y","DERIVED","CLINICAL STUDY SPONSOR"
"CDISCPILOT01","DM","01-701-1345",NA,NA,"COMPLT16","Completers of Week 16 Population Flag","Y","DERIVED","CLINICAL STUDY SPONSOR"
"CDISCPILOT01","DM","01-701-1345",NA,NA,"COMPLT24","Completers of Week 24 Population Flag","Y","DERIVED","CLINICAL STUDY SPONSOR"
"CDISCPILOT01","DM","01-701-1345",NA,NA,"COMPLT8","Completers of Week 8 Population Flag","Y","DERIVED","CLINICAL STUDY SPONSOR"
"CDISCPILOT01","DM","01-701-1345",NA,NA,"EFFICACY","Efficacy Population Flag","Y","DERIVED","CLINICAL STUDY SPONSOR"
"CDISCPILOT01","DM","01-701-1345",NA,NA,"ITT","Intent to Treat Population Flag","Y","DERIVED","CLINICAL STUDY SPONSOR"
"CDISCPILOT01","DM","01-701-1345",NA,NA,"SAFETY","Safety Population Flag","Y","DERIVED","CLINICAL STUDY SPONSOR"
"CDISCPILOT01","DM","01-701-1360",NA,NA,"EFFICACY","Efficacy Population Flag","Y","DERIVED","CLINICAL STUDY SPONSOR"
"CDISCPILOT01","DM","01-701-1360",NA,NA,"ITT","Intent to Treat Population Flag","Y","DERIVED","CLINICAL STUDY SPONSOR"
"CDISCPILOT01","DM","01-701-1360",NA,NA,"SAFETY","Safety Population Flag","Y","DERIVED","CLINICAL STUDY SPONSOR"
"CDISCPILOT01","DM","01-701-1363",NA,NA,"COMPLT16","Completers of Week 16 Population Flag","Y","DERIVED","CLINICAL STUDY SPONSOR"
"CDISCPILOT01","DM","01-701-1363",NA,NA,"COMPLT24","Completers of Week 24 Population Flag","Y","DERIVED","CLINICAL STUDY SPONSOR"
"CDISCPILOT01","DM","01-701-1363",NA,NA,"COMPLT8","Completers of Week 8 Population Flag","Y","DERIVED","CLINICAL STUDY SPONSOR"
"CDISCPILOT01","DM","01-701-1363",NA,NA,"EFFICACY","Efficacy Population Flag","Y","DERIVED","CLINICAL STUDY SPONSOR"
"CDISCPILOT01","DM","01-701-1363",NA,NA,"ITT","Intent to Treat Population Flag","Y","DERIVED","CLINICAL STUDY SPONSOR"
"CDISCPILOT01","DM","01-701-1363",NA,NA,"SAFETY","Safety Population Flag","Y","DERIVED","CLINICAL STUDY SPONSOR"
"CDISCPILOT01","DM","01-701-1383",NA,NA,"COMPLT16","Completers of Week 16 Population Flag","Y","DERIVED","CLINICAL STUDY SPONSOR"
"CDISCPILOT01","DM","01-701-1383",NA,NA,"COMPLT24","Completers of Week 24 Population Flag","Y","DERIVED","CLINICAL STUDY SPONSOR"
"CDISCPILOT01","DM","01-701-1383",NA,NA,"COMPLT8","Completers of Week 8 Population Flag","Y","DERIVED","CLINICAL STUDY SPONSOR"
"CDISCPILOT01","DM","01-701-1383",NA,NA,"EFFICACY","Efficacy Population Flag","Y","DERIVED","CLINICAL STUDY SPONSOR"
"CDISCPILOT01","DM","01-701-1383",NA,NA,"ITT","Intent to Treat Population Flag","Y","DERIVED","CLINICAL STUDY SPONSOR"
"CDISCPILOT01","DM","01-701-1383",NA,NA,"SAFETY","Safety Population Flag","Y","DERIVED","CLINICAL STUDY SPONSOR"
"CDISCPILOT01","DM","01-701-1387",NA,NA,"EFFICACY","Efficacy Population Flag","Y","DERIVED","CLINICAL STUDY SPONSOR"
"CDISCPILOT01","DM","01-701-1387",NA,NA,"ITT","Intent to Treat Population Flag","Y","DERIVED","CLINICAL STUDY SPONSOR"
"CDISCPILOT01","DM","01-701-1387",NA,NA,"SAFETY","Safety Population Flag","Y","DERIVED","CLINICAL STUDY SPONSOR"
"CDISCPILOT01","DM","01-701-1392",NA,NA,"COMPLT16","Completers of Week 16 Population Flag","Y","DERIVED","CLINICAL STUDY SPONSOR"
"CDISCPILOT01","DM","01-701-1392",NA,NA,"COMPLT24","Completers of Week 24 Population Flag","Y","DERIVED","CLINICAL STUDY SPONSOR"
"CDISCPILOT01","DM","01-701-1392",NA,NA,"COMPLT8","Completers of Week 8 Population Flag","Y","DERIVED","CLINICAL STUDY SPONSOR"
"CDISCPILOT01","DM","01-701-1392",NA,NA,"EFFICACY","Efficacy Population Flag","Y","DERIVED","CLINICAL STUDY SPONSOR"
"CDISCPILOT01","DM","01-701-1392",NA,NA,"ITT","Intent to Treat Population Flag","Y","DERIVED","CLINICAL STUDY SPONSOR"
"CDISCPILOT01","DM","01-701-1392",NA,NA,"SAFETY","Safety Population Flag","Y","DERIVED","CLINICAL STUDY SPONSOR"
"CDISCPILOT01","DM","01-701-1415",NA,NA,"COMPLT16","Completers of Week 16 Population Flag","Y","DERIVED","CLINICAL STUDY SPONSOR"
"CDISCPILOT01","DM","01-701-1415",NA,NA,"COMPLT24","Completers of Week 24 Population Flag","Y","DERIVED","CLINICAL STUDY SPONSOR"
"CDISCPILOT01","DM","01-701-1415",NA,NA,"COMPLT8","Completers of Week 8 Population Flag","Y","DERIVED","CLINICAL STUDY SPONSOR"
"CDISCPILOT01","DM","01-701-1415",NA,NA,"EFFICACY","Efficacy Population Flag","Y","DERIVED","CLINICAL STUDY SPONSOR"
"CDISCPILOT01","DM","01-701-1415",NA,NA,"ITT","Intent to Treat Population Flag","Y","DERIVED","CLINICAL STUDY SPONSOR"
"CDISCPILOT01","DM","01-701-1415",NA,NA,"SAFETY","Safety Population Flag","Y","DERIVED","CLINICAL STUDY SPONSOR"
"CDISCPILOT01","DM","01-701-1429",NA,NA,"EFFICACY","Efficacy Population Flag","Y","DERIVED","CLINICAL STUDY SPONSOR"
"CDISCPILOT01","DM","01-701-1429",NA,NA,"ITT","Intent to Treat Population Flag","Y","DERIVED","CLINICAL STUDY SPONSOR"
"CDISCPILOT01","DM","01-701-1429",NA,NA,"SAFETY","Safety Population Flag","Y","DERIVED","CLINICAL STUDY SPONSOR"
"CDISCPILOT01","DM","01-701-1440",NA,NA,"COMPLT16","Completers of Week 16 Population Flag","Y","DERIVED","CLINICAL STUDY SPONSOR"
"CDISCPILOT01","DM","01-701-1440",NA,NA,"COMPLT24","Completers of Week 24 Population Flag","Y","DERIVED","CLINICAL STUDY SPONSOR"
"CDISCPILOT01","DM","01-701-1440",NA,NA,"COMPLT8","Completers of Week 8 Population Flag","Y","DERIVED","CLINICAL STUDY SPONSOR"
"CDISCPILOT01","DM","01-701-1440",NA,NA,"EFFICACY","Efficacy Population Flag","Y","DERIVED","CLINICAL STUDY SPONSOR"
"CDISCPILOT01","DM","01-701-1440",NA,NA,"ITT","Intent to Treat Population Flag","Y","DERIVED","CLINICAL STUDY SPONSOR"
"CDISCPILOT01","DM","01-701-1440",NA,NA,"SAFETY","Safety Population Flag","Y","DERIVED","CLINICAL STUDY SPONSOR"
"CDISCPILOT01","DM","01-701-1442",NA,NA,"COMPLT16","Completers of Week 16 Population Flag","Y","DERIVED","CLINICAL STUDY SPONSOR"
"CDISCPILOT01","DM","01-701-1442",NA,NA,"COMPLT24","Completers of Week 24 Population Flag","Y","DERIVED","CLINICAL STUDY SPONSOR"
"CDISCPILOT01","DM","01-701-1442",NA,NA,"COMPLT8","Completers of Week 8 Population Flag","Y","DERIVED","CLINICAL STUDY SPONSOR"
"CDISCPILOT01","DM","01-701-1442",NA,NA,"EFFICACY","Efficacy Population Flag","Y","DERIVED","CLINICAL STUDY SPONSOR"
"CDISCPILOT01","DM","01-701-1442",NA,NA,"ITT","Intent to Treat Population Flag","Y","DERIVED","CLINICAL STUDY SPONSOR"
"CDISCPILOT01","DM","01-701-1442",NA,NA,"SAFETY","Safety Population Flag","Y","DERIVED","CLINICAL STUDY SPONSOR"
"CDISCPILOT01","DM","01-701-1444",NA,NA,"EFFICACY","Efficacy Population Flag","Y","DERIVED","CLINICAL STUDY SPONSOR"
"CDISCPILOT01","DM","01-701-1444",NA,NA,"ITT","Intent to Treat Population Flag","Y","DERIVED","CLINICAL STUDY SPONSOR"
"CDISCPILOT01","DM","01-701-1444",NA,NA,"SAFETY","Safety Population Flag","Y","DERIVED","CLINICAL STUDY SPONSOR"
"CDISCPILOT01","DM","01-702-1082",NA,NA,"COMPLT8","Completers of Week 8 Population Flag","Y","DERIVED","CLINICAL STUDY SPONSOR"
"CDISCPILOT01","DM","01-702-1082",NA,NA,"EFFICACY","Efficacy Population Flag","Y","DERIVED","CLINICAL STUDY SPONSOR"
"CDISCPILOT01","DM","01-702-1082",NA,NA,"ITT","Intent to Treat Population Flag","Y","DERIVED","CLINICAL STUDY SPONSOR"
"CDISCPILOT01","DM","01-702-1082",NA,NA,"SAFETY","Safety Population Flag","Y","DERIVED","CLINICAL STUDY SPONSOR"
"CDISCPILOT01","DM","01-703-1042",NA,NA,"COMPLT16","Completers of Week 16 Population Flag","Y","DERIVED","CLINICAL STUDY SPONSOR"
"CDISCPILOT01","DM","01-703-1042",NA,NA,"COMPLT24","Completers of Week 24 Population Flag","Y","DERIVED","CLINICAL STUDY SPONSOR"
"CDISCPILOT01","DM","01-703-1042",NA,NA,"COMPLT8","Completers of Week 8 Population Flag","Y","DERIVED","CLINICAL STUDY SPONSOR"
"CDISCPILOT01","DM","01-703-1042",NA,NA,"EFFICACY","Efficacy Population Flag","Y","DERIVED","CLINICAL STUDY SPONSOR"
"CDISCPILOT01","DM","01-703-1042",NA,NA,"ITT","Intent to Treat Population Flag","Y","DERIVED","CLINICAL STUDY SPONSOR"
"CDISCPILOT01","DM","01-703-1042",NA,NA,"SAFETY","Safety Population Flag","Y","DERIVED","CLINICAL STUDY SPONSOR"
"CDISCPILOT01","DM","01-703-1076",NA,NA,"COMPLT8","Completers of Week 8 Population Flag","Y","DERIVED","CLINICAL STUDY SPONSOR"
"CDISCPILOT01","DM","01-703-1076",NA,NA,"EFFICACY","Efficacy Population Flag","Y","DERIVED","CLINICAL STUDY SPONSOR"
"CDISCPILOT01","DM","01-703-1076",NA,NA,"ITT","Intent to Treat Population Flag","Y","DERIVED","CLINICAL STUDY SPONSOR"
"CDISCPILOT01","DM","01-703-1076",NA,NA,"SAFETY","Safety Population Flag","Y","DERIVED","CLINICAL STUDY SPONSOR"
"CDISCPILOT01","DM","01-703-1086",NA,NA,"COMPLT16","Completers of Week 16 Population Flag","Y","DERIVED","CLINICAL STUDY SPONSOR"
"CDISCPILOT01","DM","01-703-1086",NA,NA,"COMPLT8","Completers of Week 8 Population Flag","Y","DERIVED","CLINICAL STUDY SPONSOR"
"CDISCPILOT01","DM","01-703-1086",NA,NA,"EFFICACY","Efficacy Population Flag","Y","DERIVED","CLINICAL STUDY SPONSOR"
"CDISCPILOT01","DM","01-703-1086",NA,NA,"ITT","Intent to Treat Population Flag","Y","DERIVED","CLINICAL STUDY SPONSOR"
"CDISCPILOT01","DM","01-703-1086",NA,NA,"SAFETY","Safety Population Flag","Y","DERIVED","CLINICAL STUDY SPONSOR"
"CDISCPILOT01","DM","01-703-1096",NA,NA,"ITT","Intent to Treat Population Flag","Y","DERIVED","CLINICAL STUDY SPONSOR"
"CDISCPILOT01","DM","01-703-1096",NA,NA,"SAFETY","Safety Population Flag","Y","DERIVED","CLINICAL STUDY SPONSOR"
"CDISCPILOT01","DM","01-703-1100",NA,NA,"COMPLT16","Completers of Week 16 Population Flag","Y","DERIVED","CLINICAL STUDY SPONSOR"
"CDISCPILOT01","DM","01-703-1100",NA,NA,"COMPLT24","Completers of Week 24 Population Flag","Y","DERIVED","CLINICAL STUDY SPONSOR"
"CDISCPILOT01","DM","01-703-1100",NA,NA,"COMPLT8","Completers of Week 8 Population Flag","Y","DERIVED","CLINICAL STUDY SPONSOR"
"CDISCPILOT01","DM","01-703-1100",NA,NA,"EFFICACY","Efficacy Population Flag","Y","DERIVED","CLINICAL STUDY SPONSOR"
"CDISCPILOT01","DM","01-703-1100",NA,NA,"ITT","Intent to Treat Population Flag","Y","DERIVED","CLINICAL STUDY SPONSOR"
"CDISCPILOT01","DM","01-703-1100",NA,NA,"SAFETY","Safety Population Flag","Y","DERIVED","CLINICAL STUDY SPONSOR"
"CDISCPILOT01","DM","01-703-1119",NA,NA,"COMPLT16","Completers of Week 16 Population Flag","Y","DERIVED","CLINICAL STUDY SPONSOR"
"CDISCPILOT01","DM","01-703-1119",NA,NA,"COMPLT8","Completers of Week 8 Population Flag","Y","DERIVED","CLINICAL STUDY SPONSOR"
"CDISCPILOT01","DM","01-703-1119",NA,NA,"EFFICACY","Efficacy Population Flag","Y","DERIVED","CLINICAL STUDY SPONSOR"
"CDISCPILOT01","DM","01-703-1119",NA,NA,"ITT","Intent to Treat Population Flag","Y","DERIVED","CLINICAL STUDY SPONSOR"
"CDISCPILOT01","DM","01-703-1119",NA,NA,"SAFETY","Safety Population Flag","Y","DERIVED","CLINICAL STUDY SPONSOR"
"CDISCPILOT01","DM","01-703-1175",NA,NA,"EFFICACY","Efficacy Population Flag","Y","DERIVED","CLINICAL STUDY SPONSOR"
"CDISCPILOT01","DM","01-703-1175",NA,NA,"ITT","Intent to Treat Population Flag","Y","DERIVED","CLINICAL STUDY SPONSOR"
"CDISCPILOT01","DM","01-703-1175",NA,NA,"SAFETY","Safety Population Flag","Y","DERIVED","CLINICAL STUDY SPONSOR"
"CDISCPILOT01","DM","01-703-1182",NA,NA,"COMPLT8","Completers of Week 8 Population Flag","Y","DERIVED","CLINICAL STUDY SPONSOR"
"CDISCPILOT01","DM","01-703-1182",NA,NA,"EFFICACY","Efficacy Population Flag","Y","DERIVED","CLINICAL STUDY SPONSOR"
"CDISCPILOT01","DM","01-703-1182",NA,NA,"ITT","Intent to Treat Population Flag","Y","DERIVED","CLINICAL STUDY SPONSOR"
"CDISCPILOT01","DM","01-703-1182",NA,NA,"SAFETY","Safety Population Flag","Y","DERIVED","CLINICAL STUDY SPONSOR"
"CDISCPILOT01","DM","01-703-1197",NA,NA,"EFFICACY","Efficacy Population Flag","Y","DERIVED","CLINICAL STUDY SPONSOR"
"CDISCPILOT01","DM","01-703-1197",NA,NA,"ITT","Intent to Treat Population Flag","Y","DERIVED","CLINICAL STUDY SPONSOR"
"CDISCPILOT01","DM","01-703-1197",NA,NA,"SAFETY","Safety Population Flag","Y","DERIVED","CLINICAL STUDY SPONSOR"
"CDISCPILOT01","DM","01-703-1210",NA,NA,"COMPLT16","Completers of Week 16 Population Flag","Y","DERIVED","CLINICAL STUDY SPONSOR"
"CDISCPILOT01","DM","01-703-1210",NA,NA,"COMPLT24","Completers of Week 24 Population Flag","Y","DERIVED","CLINICAL STUDY SPONSOR"
"CDISCPILOT01","DM","01-703-1210",NA,NA,"COMPLT8","Completers of Week 8 Population Flag","Y","DERIVED","CLINICAL STUDY SPONSOR"
"CDISCPILOT01","DM","01-703-1210",NA,NA,"EFFICACY","Efficacy Population Flag","Y","DERIVED","CLINICAL STUDY SPONSOR"
"CDISCPILOT01","DM","01-703-1210",NA,NA,"ITT","Intent to Treat Population Flag","Y","DERIVED","CLINICAL STUDY SPONSOR"
"CDISCPILOT01","DM","01-703-1210",NA,NA,"SAFETY","Safety Population Flag","Y","DERIVED","CLINICAL STUDY SPONSOR"
"CDISCPILOT01","DM","01-703-1258",NA,NA,"COMPLT16","Completers of Week 16 Population Flag","Y","DERIVED","CLINICAL STUDY SPONSOR"
"CDISCPILOT01","DM","01-703-1258",NA,NA,"COMPLT24","Completers of Week 24 Population Flag","Y","DERIVED","CLINICAL STUDY SPONSOR"
"CDISCPILOT01","DM","01-703-1258",NA,NA,"COMPLT8","Completers of Week 8 Population Flag","Y","DERIVED","CLINICAL STUDY SPONSOR"
"CDISCPILOT01","DM","01-703-1258",NA,NA,"EFFICACY","Efficacy Population Flag","Y","DERIVED","CLINICAL STUDY SPONSOR"
"CDISCPILOT01","DM","01-703-1258",NA,NA,"ITT","Intent to Treat Population Flag","Y","DERIVED","CLINICAL STUDY SPONSOR"
"CDISCPILOT01","DM","01-703-1258",NA,NA,"SAFETY","Safety Population Flag","Y","DERIVED","CLINICAL STUDY SPONSOR"
"CDISCPILOT01","DM","01-703-1279",NA,NA,"ITT","Intent to Treat Population Flag","Y","DERIVED","CLINICAL STUDY SPONSOR"
"CDISCPILOT01","DM","01-703-1279",NA,NA,"SAFETY","Safety Population Flag","Y","DERIVED","CLINICAL STUDY SPONSOR"
"CDISCPILOT01","DM","01-703-1295",NA,NA,"COMPLT16","Completers of Week 16 Population Flag","Y","DERIVED","CLINICAL STUDY SPONSOR"
"CDISCPILOT01","DM","01-703-1295",NA,NA,"COMPLT8","Completers of Week 8 Population Flag","Y","DERIVED","CLINICAL STUDY SPONSOR"
"CDISCPILOT01","DM","01-703-1295",NA,NA,"EFFICACY","Efficacy Population Flag","Y","DERIVED","CLINICAL STUDY SPONSOR"
"CDISCPILOT01","DM","01-703-1295",NA,NA,"ITT","Intent to Treat Population Flag","Y","DERIVED","CLINICAL STUDY SPONSOR"
"CDISCPILOT01","DM","01-703-1295",NA,NA,"SAFETY","Safety Population Flag","Y","DERIVED","CLINICAL STUDY SPONSOR"
"CDISCPILOT01","DM","01-703-1299",NA,NA,"COMPLT16","Completers of Week 16 Population Flag","Y","DERIVED","CLINICAL STUDY SPONSOR"
"CDISCPILOT01","DM","01-703-1299",NA,NA,"COMPLT24","Completers of Week 24 Population Flag","Y","DERIVED","CLINICAL STUDY SPONSOR"
"CDISCPILOT01","DM","01-703-1299",NA,NA,"COMPLT8","Completers of Week 8 Population Flag","Y","DERIVED","CLINICAL STUDY SPONSOR"
"CDISCPILOT01","DM","01-703-1299",NA,NA,"EFFICACY","Efficacy Population Flag","Y","DERIVED","CLINICAL STUDY SPONSOR"
"CDISCPILOT01","DM","01-703-1299",NA,NA,"ITT","Intent to Treat Population Flag","Y","DERIVED","CLINICAL STUDY SPONSOR"
"CDISCPILOT01","DM","01-703-1299",NA,NA,"SAFETY","Safety Population Flag","Y","DERIVED","CLINICAL STUDY SPONSOR"
"CDISCPILOT01","DM","01-703-1335",NA,NA,"EFFICACY","Efficacy Population Flag","Y","DERIVED","CLINICAL STUDY SPONSOR"
"CDISCPILOT01","DM","01-703-1335",NA,NA,"ITT","Intent to Treat Population Flag","Y","DERIVED","CLINICAL STUDY SPONSOR"
"CDISCPILOT01","DM","01-703-1335",NA,NA,"SAFETY","Safety Population Flag","Y","DERIVED","CLINICAL STUDY SPONSOR"
"CDISCPILOT01","DM","01-703-1379",NA,NA,"COMPLT16","Completers of Week 16 Population Flag","Y","DERIVED","CLINICAL STUDY SPONSOR"
"CDISCPILOT01","DM","01-703-1379",NA,NA,"COMPLT24","Completers of Week 24 Population Flag","Y","DERIVED","CLINICAL STUDY SPONSOR"
"CDISCPILOT01","DM","01-703-1379",NA,NA,"COMPLT8","Completers of Week 8 Population Flag","Y","DERIVED","CLINICAL STUDY SPONSOR"
"CDISCPILOT01","DM","01-703-1379",NA,NA,"EFFICACY","Efficacy Population Flag","Y","DERIVED","CLINICAL STUDY SPONSOR"
"CDISCPILOT01","DM","01-703-1379",NA,NA,"ITT","Intent to Treat Population Flag","Y","DERIVED","CLINICAL STUDY SPONSOR"
"CDISCPILOT01","DM","01-703-1379",NA,NA,"SAFETY","Safety Population Flag","Y","DERIVED","CLINICAL STUDY SPONSOR"
"CDISCPILOT01","DM","01-703-1403",NA,NA,"ITT","Intent to Treat Population Flag","Y","DERIVED","CLINICAL STUDY SPONSOR"
"CDISCPILOT01","DM","01-703-1403",NA,NA,"SAFETY","Safety Population Flag","Y","DERIVED","CLINICAL STUDY SPONSOR"
"CDISCPILOT01","DM","01-703-1439",NA,NA,"COMPLT16","Completers of Week 16 Population Flag","Y","DERIVED","CLINICAL STUDY SPONSOR"
"CDISCPILOT01","DM","01-703-1439",NA,NA,"COMPLT24","Completers of Week 24 Population Flag","Y","DERIVED","CLINICAL STUDY SPONSOR"
"CDISCPILOT01","DM","01-703-1439",NA,NA,"COMPLT8","Completers of Week 8 Population Flag","Y","DERIVED","CLINICAL STUDY SPONSOR"
"CDISCPILOT01","DM","01-703-1439",NA,NA,"EFFICACY","Efficacy Population Flag","Y","DERIVED","CLINICAL STUDY SPONSOR"
"CDISCPILOT01","DM","01-703-1439",NA,NA,"ITT","Intent to Treat Population Flag","Y","DERIVED","CLINICAL STUDY SPONSOR"
"CDISCPILOT01","DM","01-703-1439",NA,NA,"SAFETY","Safety Population Flag","Y","DERIVED","CLINICAL STUDY SPONSOR"
"CDISCPILOT01","DM","01-704-1008",NA,NA,"EFFICACY","Efficacy Population Flag","Y","DERIVED","CLINICAL STUDY SPONSOR"
"CDISCPILOT01","DM","01-704-1008",NA,NA,"ITT","Intent to Treat Population Flag","Y","DERIVED","CLINICAL STUDY SPONSOR"
"CDISCPILOT01","DM","01-704-1008",NA,NA,"SAFETY","Safety Population Flag","Y","DERIVED","CLINICAL STUDY SPONSOR"
"CDISCPILOT01","DM","01-704-1009",NA,NA,"EFFICACY","Efficacy Population Flag","Y","DERIVED","CLINICAL STUDY SPONSOR"
"CDISCPILOT01","DM","01-704-1009",NA,NA,"ITT","Intent to Treat Population Flag","Y","DERIVED","CLINICAL STUDY SPONSOR"
"CDISCPILOT01","DM","01-704-1009",NA,NA,"SAFETY","Safety Population Flag","Y","DERIVED","CLINICAL STUDY SPONSOR"
"CDISCPILOT01","DM","01-704-1010",NA,NA,"COMPLT16","Completers of Week 16 Population Flag","Y","DERIVED","CLINICAL STUDY SPONSOR"
"CDISCPILOT01","DM","01-704-1010",NA,NA,"COMPLT8","Completers of Week 8 Population Flag","Y","DERIVED","CLINICAL STUDY SPONSOR"
"CDISCPILOT01","DM","01-704-1010",NA,NA,"EFFICACY","Efficacy Population Flag","Y","DERIVED","CLINICAL STUDY SPONSOR"
"CDISCPILOT01","DM","01-704-1010",NA,NA,"ITT","Intent to Treat Population Flag","Y","DERIVED","CLINICAL STUDY SPONSOR"
"CDISCPILOT01","DM","01-704-1010",NA,NA,"SAFETY","Safety Population Flag","Y","DERIVED","CLINICAL STUDY SPONSOR"
"CDISCPILOT01","DM","01-704-1017",NA,NA,"EFFICACY","Efficacy Population Flag","Y","DERIVED","CLINICAL STUDY SPONSOR"
"CDISCPILOT01","DM","01-704-1017",NA,NA,"ITT","Intent to Treat Population Flag","Y","DERIVED","CLINICAL STUDY SPONSOR"
"CDISCPILOT01","DM","01-704-1017",NA,NA,"SAFETY","Safety Population Flag","Y","DERIVED","CLINICAL STUDY SPONSOR"
"CDISCPILOT01","DM","01-704-1025",NA,NA,"EFFICACY","Efficacy Population Flag","Y","DERIVED","CLINICAL STUDY SPONSOR"
"CDISCPILOT01","DM","01-704-1025",NA,NA,"ITT","Intent to Treat Population Flag","Y","DERIVED","CLINICAL STUDY SPONSOR"
"CDISCPILOT01","DM","01-704-1025",NA,NA,"SAFETY","Safety Population Flag","Y","DERIVED","CLINICAL STUDY SPONSOR"
"CDISCPILOT01","DM","01-704-1065",NA,NA,"COMPLT8","Completers of Week 8 Population Flag","Y","DERIVED","CLINICAL STUDY SPONSOR"
"CDISCPILOT01","DM","01-704-1065",NA,NA,"EFFICACY","Efficacy Population Flag","Y","DERIVED","CLINICAL STUDY SPONSOR"
"CDISCPILOT01","DM","01-704-1065",NA,NA,"ITT","Intent to Treat Population Flag","Y","DERIVED","CLINICAL STUDY SPONSOR"
"CDISCPILOT01","DM","01-704-1065",NA,NA,"SAFETY","Safety Population Flag","Y","DERIVED","CLINICAL STUDY SPONSOR"
"CDISCPILOT01","DM","01-704-1074",NA,NA,"COMPLT8","Completers of Week 8 Population Flag","Y","DERIVED","CLINICAL STUDY SPONSOR"
"CDISCPILOT01","DM","01-704-1074",NA,NA,"EFFICACY","Efficacy Population Flag","Y","DERIVED","CLINICAL STUDY SPONSOR"
"CDISCPILOT01","DM","01-704-1074",NA,NA,"ITT","Intent to Treat Population Flag","Y","DERIVED","CLINICAL STUDY SPONSOR"
"CDISCPILOT01","DM","01-704-1074",NA,NA,"SAFETY","Safety Population Flag","Y","DERIVED","CLINICAL STUDY SPONSOR"
"CDISCPILOT01","DM","01-704-1093",NA,NA,"COMPLT16","Completers of Week 16 Population Flag","Y","DERIVED","CLINICAL STUDY SPONSOR"
"CDISCPILOT01","DM","01-704-1093",NA,NA,"COMPLT8","Completers of Week 8 Population Flag","Y","DERIVED","CLINICAL STUDY SPONSOR"
"CDISCPILOT01","DM","01-704-1093",NA,NA,"EFFICACY","Efficacy Population Flag","Y","DERIVED","CLINICAL STUDY SPONSOR"
"CDISCPILOT01","DM","01-704-1093",NA,NA,"ITT","Intent to Treat Population Flag","Y","DERIVED","CLINICAL STUDY SPONSOR"
"CDISCPILOT01","DM","01-704-1093",NA,NA,"SAFETY","Safety Population Flag","Y","DERIVED","CLINICAL STUDY SPONSOR"
"CDISCPILOT01","DM","01-704-1114",NA,NA,"COMPLT16","Completers of Week 16 Population Flag","Y","DERIVED","CLINICAL STUDY SPONSOR"
"CDISCPILOT01","DM","01-704-1114",NA,NA,"COMPLT24","Completers of Week 24 Population Flag","Y","DERIVED","CLINICAL STUDY SPONSOR"
"CDISCPILOT01","DM","01-704-1114",NA,NA,"COMPLT8","Completers of Week 8 Population Flag","Y","DERIVED","CLINICAL STUDY SPONSOR"
"CDISCPILOT01","DM","01-704-1114",NA,NA,"EFFICACY","Efficacy Population Flag","Y","DERIVED","CLINICAL STUDY SPONSOR"
"CDISCPILOT01","DM","01-704-1114",NA,NA,"ITT","Intent to Treat Population Flag","Y","DERIVED","CLINICAL STUDY SPONSOR"
"CDISCPILOT01","DM","01-704-1114",NA,NA,"SAFETY","Safety Population Flag","Y","DERIVED","CLINICAL STUDY SPONSOR"
"CDISCPILOT01","DM","01-704-1120",NA,NA,"COMPLT8","Completers of Week 8 Population Flag","Y","DERIVED","CLINICAL STUDY SPONSOR"
"CDISCPILOT01","DM","01-704-1120",NA,NA,"EFFICACY","Efficacy Population Flag","Y","DERIVED","CLINICAL STUDY SPONSOR"
"CDISCPILOT01","DM","01-704-1120",NA,NA,"ITT","Intent to Treat Population Flag","Y","DERIVED","CLINICAL STUDY SPONSOR"
"CDISCPILOT01","DM","01-704-1120",NA,NA,"SAFETY","Safety Population Flag","Y","DERIVED","CLINICAL STUDY SPONSOR"
"CDISCPILOT01","DM","01-704-1127",NA,NA,"COMPLT16","Completers of Week 16 Population Flag","Y","DERIVED","CLINICAL STUDY SPONSOR"
"CDISCPILOT01","DM","01-704-1127",NA,NA,"COMPLT24","Completers of Week 24 Population Flag","Y","DERIVED","CLINICAL STUDY SPONSOR"
"CDISCPILOT01","DM","01-704-1127",NA,NA,"COMPLT8","Completers of Week 8 Population Flag","Y","DERIVED","CLINICAL STUDY SPONSOR"
"CDISCPILOT01","DM","01-704-1127",NA,NA,"EFFICACY","Efficacy Population Flag","Y","DERIVED","CLINICAL STUDY SPONSOR"
"CDISCPILOT01","DM","01-704-1127",NA,NA,"ITT","Intent to Treat Population Flag","Y","DERIVED","CLINICAL STUDY SPONSOR"
"CDISCPILOT01","DM","01-704-1127",NA,NA,"SAFETY","Safety Population Flag","Y","DERIVED","CLINICAL STUDY SPONSOR"
"CDISCPILOT01","DM","01-704-1135",NA,NA,"COMPLT16","Completers of Week 16 Population Flag","Y","DERIVED","CLINICAL STUDY SPONSOR"
"CDISCPILOT01","DM","01-704-1135",NA,NA,"COMPLT24","Completers of Week 24 Population Flag","Y","DERIVED","CLINICAL STUDY SPONSOR"
"CDISCPILOT01","DM","01-704-1135",NA,NA,"COMPLT8","Completers of Week 8 Population Flag","Y","DERIVED","CLINICAL STUDY SPONSOR"
"CDISCPILOT01","DM","01-704-1135",NA,NA,"EFFICACY","Efficacy Population Flag","Y","DERIVED","CLINICAL STUDY SPONSOR"
"CDISCPILOT01","DM","01-704-1135",NA,NA,"ITT","Intent to Treat Population Flag","Y","DERIVED","CLINICAL STUDY SPONSOR"
"CDISCPILOT01","DM","01-704-1135",NA,NA,"SAFETY","Safety Population Flag","Y","DERIVED","CLINICAL STUDY SPONSOR"
"CDISCPILOT01","DM","01-704-1164",NA,NA,"COMPLT16","Completers of Week 16 Population Flag","Y","DERIVED","CLINICAL STUDY SPONSOR"
"CDISCPILOT01","DM","01-704-1164",NA,NA,"COMPLT24","Completers of Week 24 Population Flag","Y","DERIVED","CLINICAL STUDY SPONSOR"
"CDISCPILOT01","DM","01-704-1164",NA,NA,"COMPLT8","Completers of Week 8 Population Flag","Y","DERIVED","CLINICAL STUDY SPONSOR"
"CDISCPILOT01","DM","01-704-1164",NA,NA,"EFFICACY","Efficacy Population Flag","Y","DERIVED","CLINICAL STUDY SPONSOR"
"CDISCPILOT01","DM","01-704-1164",NA,NA,"ITT","Intent to Treat Population Flag","Y","DERIVED","CLINICAL STUDY SPONSOR"
"CDISCPILOT01","DM","01-704-1164",NA,NA,"SAFETY","Safety Population Flag","Y","DERIVED","CLINICAL STUDY SPONSOR"
"CDISCPILOT01","DM","01-704-1218",NA,NA,"COMPLT16","Completers of Week 16 Population Flag","Y","DERIVED","CLINICAL STUDY SPONSOR"
"CDISCPILOT01","DM","01-704-1218",NA,NA,"COMPLT24","Completers of Week 24 Population Flag","Y","DERIVED","CLINICAL STUDY SPONSOR"
"CDISCPILOT01","DM","01-704-1218",NA,NA,"COMPLT8","Completers of Week 8 Population Flag","Y","DERIVED","CLINICAL STUDY SPONSOR"
"CDISCPILOT01","DM","01-704-1218",NA,NA,"EFFICACY","Efficacy Population Flag","Y","DERIVED","CLINICAL STUDY SPONSOR"
"CDISCPILOT01","DM","01-704-1218",NA,NA,"ITT","Intent to Treat Population Flag","Y","DERIVED","CLINICAL STUDY SPONSOR"
"CDISCPILOT01","DM","01-704-1218",NA,NA,"SAFETY","Safety Population Flag","Y","DERIVED","CLINICAL STUDY SPONSOR"
"CDISCPILOT01","DM","01-704-1233",NA,NA,"COMPLT16","Completers of Week 16 Population Flag","Y","DERIVED","CLINICAL STUDY SPONSOR"
"CDISCPILOT01","DM","01-704-1233",NA,NA,"COMPLT8","Completers of Week 8 Population Flag","Y","DERIVED","CLINICAL STUDY SPONSOR"
"CDISCPILOT01","DM","01-704-1233",NA,NA,"EFFICACY","Efficacy Population Flag","Y","DERIVED","CLINICAL STUDY SPONSOR"
"CDISCPILOT01","DM","01-704-1233",NA,NA,"ITT","Intent to Treat Population Flag","Y","DERIVED","CLINICAL STUDY SPONSOR"
"CDISCPILOT01","DM","01-704-1233",NA,NA,"SAFETY","Safety Population Flag","Y","DERIVED","CLINICAL STUDY SPONSOR"
"CDISCPILOT01","DM","01-704-1241",NA,NA,"COMPLT8","Completers of Week 8 Population Flag","Y","DERIVED","CLINICAL STUDY SPONSOR"
"CDISCPILOT01","DM","01-704-1241",NA,NA,"EFFICACY","Efficacy Population Flag","Y","DERIVED","CLINICAL STUDY SPONSOR"
"CDISCPILOT01","DM","01-704-1241",NA,NA,"ITT","Intent to Treat Population Flag","Y","DERIVED","CLINICAL STUDY SPONSOR"
"CDISCPILOT01","DM","01-704-1241",NA,NA,"SAFETY","Safety Population Flag","Y","DERIVED","CLINICAL STUDY SPONSOR"
"CDISCPILOT01","DM","01-704-1260",NA,NA,"COMPLT8","Completers of Week 8 Population Flag","Y","DERIVED","CLINICAL STUDY SPONSOR"
"CDISCPILOT01","DM","01-704-1260",NA,NA,"EFFICACY","Efficacy Population Flag","Y","DERIVED","CLINICAL STUDY SPONSOR"
"CDISCPILOT01","DM","01-704-1260",NA,NA,"ITT","Intent to Treat Population Flag","Y","DERIVED","CLINICAL STUDY SPONSOR"
"CDISCPILOT01","DM","01-704-1260",NA,NA,"SAFETY","Safety Population Flag","Y","DERIVED","CLINICAL STUDY SPONSOR"
"CDISCPILOT01","DM","01-704-1266",NA,NA,"COMPLT8","Completers of Week 8 Population Flag","Y","DERIVED","CLINICAL STUDY SPONSOR"
"CDISCPILOT01","DM","01-704-1266",NA,NA,"EFFICACY","Efficacy Population Flag","Y","DERIVED","CLINICAL STUDY SPONSOR"
"CDISCPILOT01","DM","01-704-1266",NA,NA,"ITT","Intent to Treat Population Flag","Y","DERIVED","CLINICAL STUDY SPONSOR"
"CDISCPILOT01","DM","01-704-1266",NA,NA,"SAFETY","Safety Population Flag","Y","DERIVED","CLINICAL STUDY SPONSOR"
"CDISCPILOT01","DM","01-704-1323",NA,NA,"ITT","Intent to Treat Population Flag","Y","DERIVED","CLINICAL STUDY SPONSOR"
"CDISCPILOT01","DM","01-704-1323",NA,NA,"SAFETY","Safety Population Flag","Y","DERIVED","CLINICAL STUDY SPONSOR"
"CDISCPILOT01","DM","01-704-1325",NA,NA,"COMPLT16","Completers of Week 16 Population Flag","Y","DERIVED","CLINICAL STUDY SPONSOR"
"CDISCPILOT01","DM","01-704-1325",NA,NA,"COMPLT8","Completers of Week 8 Population Flag","Y","DERIVED","CLINICAL STUDY SPONSOR"
"CDISCPILOT01","DM","01-704-1325",NA,NA,"EFFICACY","Efficacy Population Flag","Y","DERIVED","CLINICAL STUDY SPONSOR"
"CDISCPILOT01","DM","01-704-1325",NA,NA,"ITT","Intent to Treat Population Flag","Y","DERIVED","CLINICAL STUDY SPONSOR"
"CDISCPILOT01","DM","01-704-1325",NA,NA,"SAFETY","Safety Population Flag","Y","DERIVED","CLINICAL STUDY SPONSOR"
"CDISCPILOT01","DM","01-704-1332",NA,NA,"COMPLT8","Completers of Week 8 Population Flag","Y","DERIVED","CLINICAL STUDY SPONSOR"
"CDISCPILOT01","DM","01-704-1332",NA,NA,"EFFICACY","Efficacy Population Flag","Y","DERIVED","CLINICAL STUDY SPONSOR"
"CDISCPILOT01","DM","01-704-1332",NA,NA,"ITT","Intent to Treat Population Flag","Y","DERIVED","CLINICAL STUDY SPONSOR"
"CDISCPILOT01","DM","01-704-1332",NA,NA,"SAFETY","Safety Population Flag","Y","DERIVED","CLINICAL STUDY SPONSOR"
"CDISCPILOT01","DM","01-704-1351",NA,NA,"COMPLT16","Completers of Week 16 Population Flag","Y","DERIVED","CLINICAL STUDY SPONSOR"
"CDISCPILOT01","DM","01-704-1351",NA,NA,"COMPLT24","Completers of Week 24 Population Flag","Y","DERIVED","CLINICAL STUDY SPONSOR"
"CDISCPILOT01","DM","01-704-1351",NA,NA,"COMPLT8","Completers of Week 8 Population Flag","Y","DERIVED","CLINICAL STUDY SPONSOR"
"CDISCPILOT01","DM","01-704-1351",NA,NA,"EFFICACY","Efficacy Population Flag","Y","DERIVED","CLINICAL STUDY SPONSOR"
"CDISCPILOT01","DM","01-704-1351",NA,NA,"ITT","Intent to Treat Population Flag","Y","DERIVED","CLINICAL STUDY SPONSOR"
"CDISCPILOT01","DM","01-704-1351",NA,NA,"SAFETY","Safety Population Flag","Y","DERIVED","CLINICAL STUDY SPONSOR"
"CDISCPILOT01","DM","01-704-1388",NA,NA,"COMPLT16","Completers of Week 16 Population Flag","Y","DERIVED","CLINICAL STUDY SPONSOR"
"CDISCPILOT01","DM","01-704-1388",NA,NA,"COMPLT24","Completers of Week 24 Population Flag","Y","DERIVED","CLINICAL STUDY SPONSOR"
"CDISCPILOT01","DM","01-704-1388",NA,NA,"COMPLT8","Completers of Week 8 Population Flag","Y","DERIVED","CLINICAL STUDY SPONSOR"
"CDISCPILOT01","DM","01-704-1388",NA,NA,"EFFICACY","Efficacy Population Flag","Y","DERIVED","CLINICAL STUDY SPONSOR"
"CDISCPILOT01","DM","01-704-1388",NA,NA,"ITT","Intent to Treat Population Flag","Y","DERIVED","CLINICAL STUDY SPONSOR"
"CDISCPILOT01","DM","01-704-1388",NA,NA,"SAFETY","Safety Population Flag","Y","DERIVED","CLINICAL STUDY SPONSOR"
"CDISCPILOT01","DM","01-704-1435",NA,NA,"COMPLT8","Completers of Week 8 Population Flag","Y","DERIVED","CLINICAL STUDY SPONSOR"
"CDISCPILOT01","DM","01-704-1435",NA,NA,"EFFICACY","Efficacy Population Flag","Y","DERIVED","CLINICAL STUDY SPONSOR"
"CDISCPILOT01","DM","01-704-1435",NA,NA,"ITT","Intent to Treat Population Flag","Y","DERIVED","CLINICAL STUDY SPONSOR"
"CDISCPILOT01","DM","01-704-1435",NA,NA,"SAFETY","Safety Population Flag","Y","DERIVED","CLINICAL STUDY SPONSOR"
"CDISCPILOT01","DM","01-704-1445",NA,NA,"COMPLT16","Completers of Week 16 Population Flag","Y","DERIVED","CLINICAL STUDY SPONSOR"
"CDISCPILOT01","DM","01-704-1445",NA,NA,"COMPLT24","Completers of Week 24 Population Flag","Y","DERIVED","CLINICAL STUDY SPONSOR"
"CDISCPILOT01","DM","01-704-1445",NA,NA,"COMPLT8","Completers of Week 8 Population Flag","Y","DERIVED","CLINICAL STUDY SPONSOR"
"CDISCPILOT01","DM","01-704-1445",NA,NA,"EFFICACY","Efficacy Population Flag","Y","DERIVED","CLINICAL STUDY SPONSOR"
"CDISCPILOT01","DM","01-704-1445",NA,NA,"ITT","Intent to Treat Population Flag","Y","DERIVED","CLINICAL STUDY SPONSOR"
"CDISCPILOT01","DM","01-704-1445",NA,NA,"SAFETY","Safety Population Flag","Y","DERIVED","CLINICAL STUDY SPONSOR"
"CDISCPILOT01","DM","01-705-1018",NA,NA,"ITT","Intent to Treat Population Flag","Y","DERIVED","CLINICAL STUDY SPONSOR"
"CDISCPILOT01","DM","01-705-1018",NA,NA,"SAFETY","Safety Population Flag","Y","DERIVED","CLINICAL STUDY SPONSOR"
"CDISCPILOT01","DM","01-705-1031",NA,NA,"COMPLT16","Completers of Week 16 Population Flag","Y","DERIVED","CLINICAL STUDY SPONSOR"
"CDISCPILOT01","DM","01-705-1031",NA,NA,"COMPLT24","Completers of Week 24 Population Flag","Y","DERIVED","CLINICAL STUDY SPONSOR"
"CDISCPILOT01","DM","01-705-1031",NA,NA,"COMPLT8","Completers of Week 8 Population Flag","Y","DERIVED","CLINICAL STUDY SPONSOR"
"CDISCPILOT01","DM","01-705-1031",NA,NA,"EFFICACY","Efficacy Population Flag","Y","DERIVED","CLINICAL STUDY SPONSOR"
"CDISCPILOT01","DM","01-705-1031",NA,NA,"ITT","Intent to Treat Population Flag","Y","DERIVED","CLINICAL STUDY SPONSOR"
"CDISCPILOT01","DM","01-705-1031",NA,NA,"SAFETY","Safety Population Flag","Y","DERIVED","CLINICAL STUDY SPONSOR"
"CDISCPILOT01","DM","01-705-1059",NA,NA,"COMPLT16","Completers of Week 16 Population Flag","Y","DERIVED","CLINICAL STUDY SPONSOR"
"CDISCPILOT01","DM","01-705-1059",NA,NA,"COMPLT8","Completers of Week 8 Population Flag","Y","DERIVED","CLINICAL STUDY SPONSOR"
"CDISCPILOT01","DM","01-705-1059",NA,NA,"EFFICACY","Efficacy Population Flag","Y","DERIVED","CLINICAL STUDY SPONSOR"
"CDISCPILOT01","DM","01-705-1059",NA,NA,"ITT","Intent to Treat Population Flag","Y","DERIVED","CLINICAL STUDY SPONSOR"
"CDISCPILOT01","DM","01-705-1059",NA,NA,"SAFETY","Safety Population Flag","Y","DERIVED","CLINICAL STUDY SPONSOR"
"CDISCPILOT01","DM","01-705-1186",NA,NA,"ITT","Intent to Treat Population Flag","Y","DERIVED","CLINICAL STUDY SPONSOR"
"CDISCPILOT01","DM","01-705-1186",NA,NA,"SAFETY","Safety Population Flag","Y","DERIVED","CLINICAL STUDY SPONSOR"
"CDISCPILOT01","DM","01-705-1199",NA,NA,"EFFICACY","Efficacy Population Flag","Y","DERIVED","CLINICAL STUDY SPONSOR"
"CDISCPILOT01","DM","01-705-1199",NA,NA,"ITT","Intent to Treat Population Flag","Y","DERIVED","CLINICAL STUDY SPONSOR"
"CDISCPILOT01","DM","01-705-1199",NA,NA,"SAFETY","Safety Population Flag","Y","DERIVED","CLINICAL STUDY SPONSOR"
"CDISCPILOT01","DM","01-705-1280",NA,NA,"COMPLT16","Completers of Week 16 Population Flag","Y","DERIVED","CLINICAL STUDY SPONSOR"
"CDISCPILOT01","DM","01-705-1280",NA,NA,"COMPLT24","Completers of Week 24 Population Flag","Y","DERIVED","CLINICAL STUDY SPONSOR"
"CDISCPILOT01","DM","01-705-1280",NA,NA,"COMPLT8","Completers of Week 8 Population Flag","Y","DERIVED","CLINICAL STUDY SPONSOR"
"CDISCPILOT01","DM","01-705-1280",NA,NA,"EFFICACY","Efficacy Population Flag","Y","DERIVED","CLINICAL STUDY SPONSOR"
"CDISCPILOT01","DM","01-705-1280",NA,NA,"ITT","Intent to Treat Population Flag","Y","DERIVED","CLINICAL STUDY SPONSOR"
"CDISCPILOT01","DM","01-705-1280",NA,NA,"SAFETY","Safety Population Flag","Y","DERIVED","CLINICAL STUDY SPONSOR"
"CDISCPILOT01","DM","01-705-1281",NA,NA,"COMPLT16","Completers of Week 16 Population Flag","Y","DERIVED","CLINICAL STUDY SPONSOR"
"CDISCPILOT01","DM","01-705-1281",NA,NA,"COMPLT8","Completers of Week 8 Population Flag","Y","DERIVED","CLINICAL STUDY SPONSOR"
"CDISCPILOT01","DM","01-705-1281",NA,NA,"EFFICACY","Efficacy Population Flag","Y","DERIVED","CLINICAL STUDY SPONSOR"
"CDISCPILOT01","DM","01-705-1281",NA,NA,"ITT","Intent to Treat Population Flag","Y","DERIVED","CLINICAL STUDY SPONSOR"
"CDISCPILOT01","DM","01-705-1281",NA,NA,"SAFETY","Safety Population Flag","Y","DERIVED","CLINICAL STUDY SPONSOR"
"CDISCPILOT01","DM","01-705-1282",NA,NA,"COMPLT16","Completers of Week 16 Population Flag","Y","DERIVED","CLINICAL STUDY SPONSOR"
"CDISCPILOT01","DM","01-705-1282",NA,NA,"COMPLT24","Completers of Week 24 Population Flag","Y","DERIVED","CLINICAL STUDY SPONSOR"
"CDISCPILOT01","DM","01-705-1282",NA,NA,"COMPLT8","Completers of Week 8 Population Flag","Y","DERIVED","CLINICAL STUDY SPONSOR"
"CDISCPILOT01","DM","01-705-1282",NA,NA,"EFFICACY","Efficacy Population Flag","Y","DERIVED","CLINICAL STUDY SPONSOR"
"CDISCPILOT01","DM","01-705-1282",NA,NA,"ITT","Intent to Treat Population Flag","Y","DERIVED","CLINICAL STUDY SPONSOR"
"CDISCPILOT01","DM","01-705-1282",NA,NA,"SAFETY","Safety Population Flag","Y","DERIVED","CLINICAL STUDY SPONSOR"
"CDISCPILOT01","DM","01-705-1292",NA,NA,"COMPLT16","Completers of Week 16 Population Flag","Y","DERIVED","CLINICAL STUDY SPONSOR"
"CDISCPILOT01","DM","01-705-1292",NA,NA,"COMPLT24","Completers of Week 24 Population Flag","Y","DERIVED","CLINICAL STUDY SPONSOR"
"CDISCPILOT01","DM","01-705-1292",NA,NA,"COMPLT8","Completers of Week 8 Population Flag","Y","DERIVED","CLINICAL STUDY SPONSOR"
"CDISCPILOT01","DM","01-705-1292",NA,NA,"EFFICACY","Efficacy Population Flag","Y","DERIVED","CLINICAL STUDY SPONSOR"
"CDISCPILOT01","DM","01-705-1292",NA,NA,"ITT","Intent to Treat Population Flag","Y","DERIVED","CLINICAL STUDY SPONSOR"
"CDISCPILOT01","DM","01-705-1292",NA,NA,"SAFETY","Safety Population Flag","Y","DERIVED","CLINICAL STUDY SPONSOR"
"CDISCPILOT01","DM","01-705-1303",NA,NA,"COMPLT16","Completers of Week 16 Population Flag","Y","DERIVED","CLINICAL STUDY SPONSOR"
"CDISCPILOT01","DM","01-705-1303",NA,NA,"COMPLT8","Completers of Week 8 Population Flag","Y","DERIVED","CLINICAL STUDY SPONSOR"
"CDISCPILOT01","DM","01-705-1303",NA,NA,"EFFICACY","Efficacy Population Flag","Y","DERIVED","CLINICAL STUDY SPONSOR"
"CDISCPILOT01","DM","01-705-1303",NA,NA,"ITT","Intent to Treat Population Flag","Y","DERIVED","CLINICAL STUDY SPONSOR"
"CDISCPILOT01","DM","01-705-1303",NA,NA,"SAFETY","Safety Population Flag","Y","DERIVED","CLINICAL STUDY SPONSOR"
"CDISCPILOT01","DM","01-705-1310",NA,NA,"COMPLT8","Completers of Week 8 Population Flag","Y","DERIVED","CLINICAL STUDY SPONSOR"
"CDISCPILOT01","DM","01-705-1310",NA,NA,"EFFICACY","Efficacy Population Flag","Y","DERIVED","CLINICAL STUDY SPONSOR"
"CDISCPILOT01","DM","01-705-1310",NA,NA,"ITT","Intent to Treat Population Flag","Y","DERIVED","CLINICAL STUDY SPONSOR"
"CDISCPILOT01","DM","01-705-1310",NA,NA,"SAFETY","Safety Population Flag","Y","DERIVED","CLINICAL STUDY SPONSOR"
"CDISCPILOT01","DM","01-705-1349",NA,NA,"COMPLT16","Completers of Week 16 Population Flag","Y","DERIVED","CLINICAL STUDY SPONSOR"
"CDISCPILOT01","DM","01-705-1349",NA,NA,"COMPLT24","Completers of Week 24 Population Flag","Y","DERIVED","CLINICAL STUDY SPONSOR"
"CDISCPILOT01","DM","01-705-1349",NA,NA,"COMPLT8","Completers of Week 8 Population Flag","Y","DERIVED","CLINICAL STUDY SPONSOR"
"CDISCPILOT01","DM","01-705-1349",NA,NA,"EFFICACY","Efficacy Population Flag","Y","DERIVED","CLINICAL STUDY SPONSOR"
"CDISCPILOT01","DM","01-705-1349",NA,NA,"ITT","Intent to Treat Population Flag","Y","DERIVED","CLINICAL STUDY SPONSOR"
"CDISCPILOT01","DM","01-705-1349",NA,NA,"SAFETY","Safety Population Flag","Y","DERIVED","CLINICAL STUDY SPONSOR"
"CDISCPILOT01","DM","01-705-1377",NA,NA,"ITT","Intent to Treat Population Flag","Y","DERIVED","CLINICAL STUDY SPONSOR"
"CDISCPILOT01","DM","01-705-1377",NA,NA,"SAFETY","Safety Population Flag","Y","DERIVED","CLINICAL STUDY SPONSOR"
"CDISCPILOT01","DM","01-705-1382",NA,NA,"ITT","Intent to Treat Population Flag","Y","DERIVED","CLINICAL STUDY SPONSOR"
"CDISCPILOT01","DM","01-705-1382",NA,NA,"SAFETY","Safety Population Flag","Y","DERIVED","CLINICAL STUDY SPONSOR"
"CDISCPILOT01","DM","01-705-1393",NA,NA,"COMPLT16","Completers of Week 16 Population Flag","Y","DERIVED","CLINICAL STUDY SPONSOR"
"CDISCPILOT01","DM","01-705-1393",NA,NA,"COMPLT8","Completers of Week 8 Population Flag","Y","DERIVED","CLINICAL STUDY SPONSOR"
"CDISCPILOT01","DM","01-705-1393",NA,NA,"EFFICACY","Efficacy Population Flag","Y","DERIVED","CLINICAL STUDY SPONSOR"
"CDISCPILOT01","DM","01-705-1393",NA,NA,"ITT","Intent to Treat Population Flag","Y","DERIVED","CLINICAL STUDY SPONSOR"
"CDISCPILOT01","DM","01-705-1393",NA,NA,"SAFETY","Safety Population Flag","Y","DERIVED","CLINICAL STUDY SPONSOR"
"CDISCPILOT01","DM","01-705-1431",NA,NA,"COMPLT16","Completers of Week 16 Population Flag","Y","DERIVED","CLINICAL STUDY SPONSOR"
"CDISCPILOT01","DM","01-705-1431",NA,NA,"COMPLT24","Completers of Week 24 Population Flag","Y","DERIVED","CLINICAL STUDY SPONSOR"
"CDISCPILOT01","DM","01-705-1431",NA,NA,"COMPLT8","Completers of Week 8 Population Flag","Y","DERIVED","CLINICAL STUDY SPONSOR"
"CDISCPILOT01","DM","01-705-1431",NA,NA,"EFFICACY","Efficacy Population Flag","Y","DERIVED","CLINICAL STUDY SPONSOR"
"CDISCPILOT01","DM","01-705-1431",NA,NA,"ITT","Intent to Treat Population Flag","Y","DERIVED","CLINICAL STUDY SPONSOR"
"CDISCPILOT01","DM","01-705-1431",NA,NA,"SAFETY","Safety Population Flag","Y","DERIVED","CLINICAL STUDY SPONSOR"
"CDISCPILOT01","DM","01-706-1041",NA,NA,"COMPLT16","Completers of Week 16 Population Flag","Y","DERIVED","CLINICAL STUDY SPONSOR"
"CDISCPILOT01","DM","01-706-1041",NA,NA,"COMPLT24","Completers of Week 24 Population Flag","Y","DERIVED","CLINICAL STUDY SPONSOR"
"CDISCPILOT01","DM","01-706-1041",NA,NA,"COMPLT8","Completers of Week 8 Population Flag","Y","DERIVED","CLINICAL STUDY SPONSOR"
"CDISCPILOT01","DM","01-706-1041",NA,NA,"EFFICACY","Efficacy Population Flag","Y","DERIVED","CLINICAL STUDY SPONSOR"
"CDISCPILOT01","DM","01-706-1041",NA,NA,"ITT","Intent to Treat Population Flag","Y","DERIVED","CLINICAL STUDY SPONSOR"
"CDISCPILOT01","DM","01-706-1041",NA,NA,"SAFETY","Safety Population Flag","Y","DERIVED","CLINICAL STUDY SPONSOR"
"CDISCPILOT01","DM","01-706-1049",NA,NA,"EFFICACY","Efficacy Population Flag","Y","DERIVED","CLINICAL STUDY SPONSOR"
"CDISCPILOT01","DM","01-706-1049",NA,NA,"ITT","Intent to Treat Population Flag","Y","DERIVED","CLINICAL STUDY SPONSOR"
"CDISCPILOT01","DM","01-706-1049",NA,NA,"SAFETY","Safety Population Flag","Y","DERIVED","CLINICAL STUDY SPONSOR"
"CDISCPILOT01","DM","01-706-1384",NA,NA,"EFFICACY","Efficacy Population Flag","Y","DERIVED","CLINICAL STUDY SPONSOR"
"CDISCPILOT01","DM","01-706-1384",NA,NA,"ITT","Intent to Treat Population Flag","Y","DERIVED","CLINICAL STUDY SPONSOR"
"CDISCPILOT01","DM","01-706-1384",NA,NA,"SAFETY","Safety Population Flag","Y","DERIVED","CLINICAL STUDY SPONSOR"
"CDISCPILOT01","DM","01-707-1037",NA,NA,"EFFICACY","Efficacy Population Flag","Y","DERIVED","CLINICAL STUDY SPONSOR"
"CDISCPILOT01","DM","01-707-1037",NA,NA,"ITT","Intent to Treat Population Flag","Y","DERIVED","CLINICAL STUDY SPONSOR"
"CDISCPILOT01","DM","01-707-1037",NA,NA,"SAFETY","Safety Population Flag","Y","DERIVED","CLINICAL STUDY SPONSOR"
"CDISCPILOT01","DM","01-707-1206",NA,NA,"COMPLT16","Completers of Week 16 Population Flag","Y","DERIVED","CLINICAL STUDY SPONSOR"
"CDISCPILOT01","DM","01-707-1206",NA,NA,"COMPLT24","Completers of Week 24 Population Flag","Y","DERIVED","CLINICAL STUDY SPONSOR"
"CDISCPILOT01","DM","01-707-1206",NA,NA,"COMPLT8","Completers of Week 8 Population Flag","Y","DERIVED","CLINICAL STUDY SPONSOR"
"CDISCPILOT01","DM","01-707-1206",NA,NA,"EFFICACY","Efficacy Population Flag","Y","DERIVED","CLINICAL STUDY SPONSOR"
"CDISCPILOT01","DM","01-707-1206",NA,NA,"ITT","Intent to Treat Population Flag","Y","DERIVED","CLINICAL STUDY SPONSOR"
"CDISCPILOT01","DM","01-707-1206",NA,NA,"SAFETY","Safety Population Flag","Y","DERIVED","CLINICAL STUDY SPONSOR"
"CDISCPILOT01","DM","01-708-1019",NA,NA,"EFFICACY","Efficacy Population Flag","Y","DERIVED","CLINICAL STUDY SPONSOR"
"CDISCPILOT01","DM","01-708-1019",NA,NA,"ITT","Intent to Treat Population Flag","Y","DERIVED","CLINICAL STUDY SPONSOR"
"CDISCPILOT01","DM","01-708-1019",NA,NA,"SAFETY","Safety Population Flag","Y","DERIVED","CLINICAL STUDY SPONSOR"
"CDISCPILOT01","DM","01-708-1032",NA,NA,"EFFICACY","Efficacy Population Flag","Y","DERIVED","CLINICAL STUDY SPONSOR"
"CDISCPILOT01","DM","01-708-1032",NA,NA,"ITT","Intent to Treat Population Flag","Y","DERIVED","CLINICAL STUDY SPONSOR"
"CDISCPILOT01","DM","01-708-1032",NA,NA,"SAFETY","Safety Population Flag","Y","DERIVED","CLINICAL STUDY SPONSOR"
"CDISCPILOT01","DM","01-708-1084",NA,NA,"COMPLT16","Completers of Week 16 Population Flag","Y","DERIVED","CLINICAL STUDY SPONSOR"
"CDISCPILOT01","DM","01-708-1084",NA,NA,"COMPLT24","Completers of Week 24 Population Flag","Y","DERIVED","CLINICAL STUDY SPONSOR"
"CDISCPILOT01","DM","01-708-1084",NA,NA,"COMPLT8","Completers of Week 8 Population Flag","Y","DERIVED","CLINICAL STUDY SPONSOR"
"CDISCPILOT01","DM","01-708-1084",NA,NA,"EFFICACY","Efficacy Population Flag","Y","DERIVED","CLINICAL STUDY SPONSOR"
"CDISCPILOT01","DM","01-708-1084",NA,NA,"ITT","Intent to Treat Population Flag","Y","DERIVED","CLINICAL STUDY SPONSOR"
"CDISCPILOT01","DM","01-708-1084",NA,NA,"SAFETY","Safety Population Flag","Y","DERIVED","CLINICAL STUDY SPONSOR"
"CDISCPILOT01","DM","01-708-1087",NA,NA,"COMPLT16","Completers of Week 16 Population Flag","Y","DERIVED","CLINICAL STUDY SPONSOR"
"CDISCPILOT01","DM","01-708-1087",NA,NA,"COMPLT24","Completers of Week 24 Population Flag","Y","DERIVED","CLINICAL STUDY SPONSOR"
"CDISCPILOT01","DM","01-708-1087",NA,NA,"COMPLT8","Completers of Week 8 Population Flag","Y","DERIVED","CLINICAL STUDY SPONSOR"
"CDISCPILOT01","DM","01-708-1087",NA,NA,"EFFICACY","Efficacy Population Flag","Y","DERIVED","CLINICAL STUDY SPONSOR"
"CDISCPILOT01","DM","01-708-1087",NA,NA,"ITT","Intent to Treat Population Flag","Y","DERIVED","CLINICAL STUDY SPONSOR"
"CDISCPILOT01","DM","01-708-1087",NA,NA,"SAFETY","Safety Population Flag","Y","DERIVED","CLINICAL STUDY SPONSOR"
"CDISCPILOT01","DM","01-708-1158",NA,NA,"EFFICACY","Efficacy Population Flag","Y","DERIVED","CLINICAL STUDY SPONSOR"
"CDISCPILOT01","DM","01-708-1158",NA,NA,"ITT","Intent to Treat Population Flag","Y","DERIVED","CLINICAL STUDY SPONSOR"
"CDISCPILOT01","DM","01-708-1158",NA,NA,"SAFETY","Safety Population Flag","Y","DERIVED","CLINICAL STUDY SPONSOR"
"CDISCPILOT01","DM","01-708-1171",NA,NA,"COMPLT16","Completers of Week 16 Population Flag","Y","DERIVED","CLINICAL STUDY SPONSOR"
"CDISCPILOT01","DM","01-708-1171",NA,NA,"COMPLT24","Completers of Week 24 Population Flag","Y","DERIVED","CLINICAL STUDY SPONSOR"
"CDISCPILOT01","DM","01-708-1171",NA,NA,"COMPLT8","Completers of Week 8 Population Flag","Y","DERIVED","CLINICAL STUDY SPONSOR"
"CDISCPILOT01","DM","01-708-1171",NA,NA,"EFFICACY","Efficacy Population Flag","Y","DERIVED","CLINICAL STUDY SPONSOR"
"CDISCPILOT01","DM","01-708-1171",NA,NA,"ITT","Intent to Treat Population Flag","Y","DERIVED","CLINICAL STUDY SPONSOR"
"CDISCPILOT01","DM","01-708-1171",NA,NA,"SAFETY","Safety Population Flag","Y","DERIVED","CLINICAL STUDY SPONSOR"
"CDISCPILOT01","DM","01-708-1178",NA,NA,"COMPLT8","Completers of Week 8 Population Flag","Y","DERIVED","CLINICAL STUDY SPONSOR"
"CDISCPILOT01","DM","01-708-1178",NA,NA,"EFFICACY","Efficacy Population Flag","Y","DERIVED","CLINICAL STUDY SPONSOR"
"CDISCPILOT01","DM","01-708-1178",NA,NA,"ITT","Intent to Treat Population Flag","Y","DERIVED","CLINICAL STUDY SPONSOR"
"CDISCPILOT01","DM","01-708-1178",NA,NA,"SAFETY","Safety Population Flag","Y","DERIVED","CLINICAL STUDY SPONSOR"
"CDISCPILOT01","DM","01-708-1213",NA,NA,"ITT","Intent to Treat Population Flag","Y","DERIVED","CLINICAL STUDY SPONSOR"
"CDISCPILOT01","DM","01-708-1213",NA,NA,"SAFETY","Safety Population Flag","Y","DERIVED","CLINICAL STUDY SPONSOR"
"CDISCPILOT01","DM","01-708-1216",NA,NA,"EFFICACY","Efficacy Population Flag","Y","DERIVED","CLINICAL STUDY SPONSOR"
"CDISCPILOT01","DM","01-708-1216",NA,NA,"ITT","Intent to Treat Population Flag","Y","DERIVED","CLINICAL STUDY SPONSOR"
"CDISCPILOT01","DM","01-708-1216",NA,NA,"SAFETY","Safety Population Flag","Y","DERIVED","CLINICAL STUDY SPONSOR"
"CDISCPILOT01","DM","01-708-1236",NA,NA,"ITT","Intent to Treat Population Flag","Y","DERIVED","CLINICAL STUDY SPONSOR"
"CDISCPILOT01","DM","01-708-1236",NA,NA,"SAFETY","Safety Population Flag","Y","DERIVED","CLINICAL STUDY SPONSOR"
"CDISCPILOT01","DM","01-708-1253",NA,NA,"COMPLT16","Completers of Week 16 Population Flag","Y","DERIVED","CLINICAL STUDY SPONSOR"
"CDISCPILOT01","DM","01-708-1253",NA,NA,"COMPLT24","Completers of Week 24 Population Flag","Y","DERIVED","CLINICAL STUDY SPONSOR"
"CDISCPILOT01","DM","01-708-1253",NA,NA,"COMPLT8","Completers of Week 8 Population Flag","Y","DERIVED","CLINICAL STUDY SPONSOR"
"CDISCPILOT01","DM","01-708-1253",NA,NA,"EFFICACY","Efficacy Population Flag","Y","DERIVED","CLINICAL STUDY SPONSOR"
"CDISCPILOT01","DM","01-708-1253",NA,NA,"ITT","Intent to Treat Population Flag","Y","DERIVED","CLINICAL STUDY SPONSOR"
"CDISCPILOT01","DM","01-708-1253",NA,NA,"SAFETY","Safety Population Flag","Y","DERIVED","CLINICAL STUDY SPONSOR"
"CDISCPILOT01","DM","01-708-1272",NA,NA,"COMPLT8","Completers of Week 8 Population Flag","Y","DERIVED","CLINICAL STUDY SPONSOR"
"CDISCPILOT01","DM","01-708-1272",NA,NA,"EFFICACY","Efficacy Population Flag","Y","DERIVED","CLINICAL STUDY SPONSOR"
"CDISCPILOT01","DM","01-708-1272",NA,NA,"ITT","Intent to Treat Population Flag","Y","DERIVED","CLINICAL STUDY SPONSOR"
"CDISCPILOT01","DM","01-708-1272",NA,NA,"SAFETY","Safety Population Flag","Y","DERIVED","CLINICAL STUDY SPONSOR"
"CDISCPILOT01","DM","01-708-1286",NA,NA,"COMPLT16","Completers of Week 16 Population Flag","Y","DERIVED","CLINICAL STUDY SPONSOR"
"CDISCPILOT01","DM","01-708-1286",NA,NA,"COMPLT24","Completers of Week 24 Population Flag","Y","DERIVED","CLINICAL STUDY SPONSOR"
"CDISCPILOT01","DM","01-708-1286",NA,NA,"COMPLT8","Completers of Week 8 Population Flag","Y","DERIVED","CLINICAL STUDY SPONSOR"
"CDISCPILOT01","DM","01-708-1286",NA,NA,"EFFICACY","Efficacy Population Flag","Y","DERIVED","CLINICAL STUDY SPONSOR"
"CDISCPILOT01","DM","01-708-1286",NA,NA,"ITT","Intent to Treat Population Flag","Y","DERIVED","CLINICAL STUDY SPONSOR"
"CDISCPILOT01","DM","01-708-1286",NA,NA,"SAFETY","Safety Population Flag","Y","DERIVED","CLINICAL STUDY SPONSOR"
"CDISCPILOT01","DM","01-708-1296",NA,NA,"COMPLT16","Completers of Week 16 Population Flag","Y","DERIVED","CLINICAL STUDY SPONSOR"
"CDISCPILOT01","DM","01-708-1296",NA,NA,"COMPLT24","Completers of Week 24 Population Flag","Y","DERIVED","CLINICAL STUDY SPONSOR"
"CDISCPILOT01","DM","01-708-1296",NA,NA,"COMPLT8","Completers of Week 8 Population Flag","Y","DERIVED","CLINICAL STUDY SPONSOR"
"CDISCPILOT01","DM","01-708-1296",NA,NA,"EFFICACY","Efficacy Population Flag","Y","DERIVED","CLINICAL STUDY SPONSOR"
"CDISCPILOT01","DM","01-708-1296",NA,NA,"ITT","Intent to Treat Population Flag","Y","DERIVED","CLINICAL STUDY SPONSOR"
"CDISCPILOT01","DM","01-708-1296",NA,NA,"SAFETY","Safety Population Flag","Y","DERIVED","CLINICAL STUDY SPONSOR"
"CDISCPILOT01","DM","01-708-1297",NA,NA,"COMPLT16","Completers of Week 16 Population Flag","Y","DERIVED","CLINICAL STUDY SPONSOR"
"CDISCPILOT01","DM","01-708-1297",NA,NA,"COMPLT8","Completers of Week 8 Population Flag","Y","DERIVED","CLINICAL STUDY SPONSOR"
"CDISCPILOT01","DM","01-708-1297",NA,NA,"EFFICACY","Efficacy Population Flag","Y","DERIVED","CLINICAL STUDY SPONSOR"
"CDISCPILOT01","DM","01-708-1297",NA,NA,"ITT","Intent to Treat Population Flag","Y","DERIVED","CLINICAL STUDY SPONSOR"
"CDISCPILOT01","DM","01-708-1297",NA,NA,"SAFETY","Safety Population Flag","Y","DERIVED","CLINICAL STUDY SPONSOR"
"CDISCPILOT01","DM","01-708-1316",NA,NA,"COMPLT16","Completers of Week 16 Population Flag","Y","DERIVED","CLINICAL STUDY SPONSOR"
"CDISCPILOT01","DM","01-708-1316",NA,NA,"COMPLT24","Completers of Week 24 Population Flag","Y","DERIVED","CLINICAL STUDY SPONSOR"
"CDISCPILOT01","DM","01-708-1316",NA,NA,"COMPLT8","Completers of Week 8 Population Flag","Y","DERIVED","CLINICAL STUDY SPONSOR"
"CDISCPILOT01","DM","01-708-1316",NA,NA,"EFFICACY","Efficacy Population Flag","Y","DERIVED","CLINICAL STUDY SPONSOR"
"CDISCPILOT01","DM","01-708-1316",NA,NA,"ITT","Intent to Treat Population Flag","Y","DERIVED","CLINICAL STUDY SPONSOR"
"CDISCPILOT01","DM","01-708-1316",NA,NA,"SAFETY","Safety Population Flag","Y","DERIVED","CLINICAL STUDY SPONSOR"
"CDISCPILOT01","DM","01-708-1336",NA,NA,"COMPLT16","Completers of Week 16 Population Flag","Y","DERIVED","CLINICAL STUDY SPONSOR"
"CDISCPILOT01","DM","01-708-1336",NA,NA,"COMPLT24","Completers of Week 24 Population Flag","Y","DERIVED","CLINICAL STUDY SPONSOR"
"CDISCPILOT01","DM","01-708-1336",NA,NA,"COMPLT8","Completers of Week 8 Population Flag","Y","DERIVED","CLINICAL STUDY SPONSOR"
"CDISCPILOT01","DM","01-708-1336",NA,NA,"EFFICACY","Efficacy Population Flag","Y","DERIVED","CLINICAL STUDY SPONSOR"
"CDISCPILOT01","DM","01-708-1336",NA,NA,"ITT","Intent to Treat Population Flag","Y","DERIVED","CLINICAL STUDY SPONSOR"
"CDISCPILOT01","DM","01-708-1336",NA,NA,"SAFETY","Safety Population Flag","Y","DERIVED","CLINICAL STUDY SPONSOR"
"CDISCPILOT01","DM","01-708-1342",NA,NA,"COMPLT16","Completers of Week 16 Population Flag","Y","DERIVED","CLINICAL STUDY SPONSOR"
"CDISCPILOT01","DM","01-708-1342",NA,NA,"COMPLT24","Completers of Week 24 Population Flag","Y","DERIVED","CLINICAL STUDY SPONSOR"
"CDISCPILOT01","DM","01-708-1342",NA,NA,"COMPLT8","Completers of Week 8 Population Flag","Y","DERIVED","CLINICAL STUDY SPONSOR"
"CDISCPILOT01","DM","01-708-1342",NA,NA,"EFFICACY","Efficacy Population Flag","Y","DERIVED","CLINICAL STUDY SPONSOR"
"CDISCPILOT01","DM","01-708-1342",NA,NA,"ITT","Intent to Treat Population Flag","Y","DERIVED","CLINICAL STUDY SPONSOR"
"CDISCPILOT01","DM","01-708-1342",NA,NA,"SAFETY","Safety Population Flag","Y","DERIVED","CLINICAL STUDY SPONSOR"
"CDISCPILOT01","DM","01-708-1347",NA,NA,"COMPLT8","Completers of Week 8 Population Flag","Y","DERIVED","CLINICAL STUDY SPONSOR"
"CDISCPILOT01","DM","01-708-1347",NA,NA,"EFFICACY","Efficacy Population Flag","Y","DERIVED","CLINICAL STUDY SPONSOR"
"CDISCPILOT01","DM","01-708-1347",NA,NA,"ITT","Intent to Treat Population Flag","Y","DERIVED","CLINICAL STUDY SPONSOR"
"CDISCPILOT01","DM","01-708-1347",NA,NA,"SAFETY","Safety Population Flag","Y","DERIVED","CLINICAL STUDY SPONSOR"
"CDISCPILOT01","DM","01-708-1348",NA,NA,"COMPLT16","Completers of Week 16 Population Flag","Y","DERIVED","CLINICAL STUDY SPONSOR"
"CDISCPILOT01","DM","01-708-1348",NA,NA,"COMPLT24","Completers of Week 24 Population Flag","Y","DERIVED","CLINICAL STUDY SPONSOR"
"CDISCPILOT01","DM","01-708-1348",NA,NA,"COMPLT8","Completers of Week 8 Population Flag","Y","DERIVED","CLINICAL STUDY SPONSOR"
"CDISCPILOT01","DM","01-708-1348",NA,NA,"EFFICACY","Efficacy Population Flag","Y","DERIVED","CLINICAL STUDY SPONSOR"
"CDISCPILOT01","DM","01-708-1348",NA,NA,"ITT","Intent to Treat Population Flag","Y","DERIVED","CLINICAL STUDY SPONSOR"
"CDISCPILOT01","DM","01-708-1348",NA,NA,"SAFETY","Safety Population Flag","Y","DERIVED","CLINICAL STUDY SPONSOR"
"CDISCPILOT01","DM","01-708-1353",NA,NA,"COMPLT8","Completers of Week 8 Population Flag","Y","DERIVED","CLINICAL STUDY SPONSOR"
"CDISCPILOT01","DM","01-708-1353",NA,NA,"EFFICACY","Efficacy Population Flag","Y","DERIVED","CLINICAL STUDY SPONSOR"
"CDISCPILOT01","DM","01-708-1353",NA,NA,"ITT","Intent to Treat Population Flag","Y","DERIVED","CLINICAL STUDY SPONSOR"
"CDISCPILOT01","DM","01-708-1353",NA,NA,"SAFETY","Safety Population Flag","Y","DERIVED","CLINICAL STUDY SPONSOR"
"CDISCPILOT01","DM","01-708-1372",NA,NA,"ITT","Intent to Treat Population Flag","Y","DERIVED","CLINICAL STUDY SPONSOR"
"CDISCPILOT01","DM","01-708-1372",NA,NA,"SAFETY","Safety Population Flag","Y","DERIVED","CLINICAL STUDY SPONSOR"
"CDISCPILOT01","DM","01-708-1378",NA,NA,"COMPLT16","Completers of Week 16 Population Flag","Y","DERIVED","CLINICAL STUDY SPONSOR"
"CDISCPILOT01","DM","01-708-1378",NA,NA,"COMPLT8","Completers of Week 8 Population Flag","Y","DERIVED","CLINICAL STUDY SPONSOR"
"CDISCPILOT01","DM","01-708-1378",NA,NA,"EFFICACY","Efficacy Population Flag","Y","DERIVED","CLINICAL STUDY SPONSOR"
"CDISCPILOT01","DM","01-708-1378",NA,NA,"ITT","Intent to Treat Population Flag","Y","DERIVED","CLINICAL STUDY SPONSOR"
"CDISCPILOT01","DM","01-708-1378",NA,NA,"SAFETY","Safety Population Flag","Y","DERIVED","CLINICAL STUDY SPONSOR"
"CDISCPILOT01","DM","01-708-1406",NA,NA,"COMPLT16","Completers of Week 16 Population Flag","Y","DERIVED","CLINICAL STUDY SPONSOR"
"CDISCPILOT01","DM","01-708-1406",NA,NA,"COMPLT24","Completers of Week 24 Population Flag","Y","DERIVED","CLINICAL STUDY SPONSOR"
"CDISCPILOT01","DM","01-708-1406",NA,NA,"COMPLT8","Completers of Week 8 Population Flag","Y","DERIVED","CLINICAL STUDY SPONSOR"
"CDISCPILOT01","DM","01-708-1406",NA,NA,"EFFICACY","Efficacy Population Flag","Y","DERIVED","CLINICAL STUDY SPONSOR"
"CDISCPILOT01","DM","01-708-1406",NA,NA,"ITT","Intent to Treat Population Flag","Y","DERIVED","CLINICAL STUDY SPONSOR"
"CDISCPILOT01","DM","01-708-1406",NA,NA,"SAFETY","Safety Population Flag","Y","DERIVED","CLINICAL STUDY SPONSOR"
"CDISCPILOT01","DM","01-708-1428",NA,NA,"COMPLT8","Completers of Week 8 Population Flag","Y","DERIVED","CLINICAL STUDY SPONSOR"
"CDISCPILOT01","DM","01-708-1428",NA,NA,"EFFICACY","Efficacy Population Flag","Y","DERIVED","CLINICAL STUDY SPONSOR"
"CDISCPILOT01","DM","01-708-1428",NA,NA,"ITT","Intent to Treat Population Flag","Y","DERIVED","CLINICAL STUDY SPONSOR"
"CDISCPILOT01","DM","01-708-1428",NA,NA,"SAFETY","Safety Population Flag","Y","DERIVED","CLINICAL STUDY SPONSOR"
"CDISCPILOT01","DM","01-709-1001",NA,NA,"COMPLT16","Completers of Week 16 Population Flag","Y","DERIVED","CLINICAL STUDY SPONSOR"
"CDISCPILOT01","DM","01-709-1001",NA,NA,"COMPLT24","Completers of Week 24 Population Flag","Y","DERIVED","CLINICAL STUDY SPONSOR"
"CDISCPILOT01","DM","01-709-1001",NA,NA,"COMPLT8","Completers of Week 8 Population Flag","Y","DERIVED","CLINICAL STUDY SPONSOR"
"CDISCPILOT01","DM","01-709-1001",NA,NA,"EFFICACY","Efficacy Population Flag","Y","DERIVED","CLINICAL STUDY SPONSOR"
"CDISCPILOT01","DM","01-709-1001",NA,NA,"ITT","Intent to Treat Population Flag","Y","DERIVED","CLINICAL STUDY SPONSOR"
"CDISCPILOT01","DM","01-709-1001",NA,NA,"SAFETY","Safety Population Flag","Y","DERIVED","CLINICAL STUDY SPONSOR"
"CDISCPILOT01","DM","01-709-1007",NA,NA,"ITT","Intent to Treat Population Flag","Y","DERIVED","CLINICAL STUDY SPONSOR"
"CDISCPILOT01","DM","01-709-1007",NA,NA,"SAFETY","Safety Population Flag","Y","DERIVED","CLINICAL STUDY SPONSOR"
"CDISCPILOT01","DM","01-709-1020",NA,NA,"COMPLT16","Completers of Week 16 Population Flag","Y","DERIVED","CLINICAL STUDY SPONSOR"
"CDISCPILOT01","DM","01-709-1020",NA,NA,"COMPLT24","Completers of Week 24 Population Flag","Y","DERIVED","CLINICAL STUDY SPONSOR"
"CDISCPILOT01","DM","01-709-1020",NA,NA,"COMPLT8","Completers of Week 8 Population Flag","Y","DERIVED","CLINICAL STUDY SPONSOR"
"CDISCPILOT01","DM","01-709-1020",NA,NA,"EFFICACY","Efficacy Population Flag","Y","DERIVED","CLINICAL STUDY SPONSOR"
"CDISCPILOT01","DM","01-709-1020",NA,NA,"ITT","Intent to Treat Population Flag","Y","DERIVED","CLINICAL STUDY SPONSOR"
"CDISCPILOT01","DM","01-709-1020",NA,NA,"SAFETY","Safety Population Flag","Y","DERIVED","CLINICAL STUDY SPONSOR"
"CDISCPILOT01","DM","01-709-1029",NA,NA,"COMPLT16","Completers of Week 16 Population Flag","Y","DERIVED","CLINICAL STUDY SPONSOR"
"CDISCPILOT01","DM","01-709-1029",NA,NA,"COMPLT24","Completers of Week 24 Population Flag","Y","DERIVED","CLINICAL STUDY SPONSOR"
"CDISCPILOT01","DM","01-709-1029",NA,NA,"COMPLT8","Completers of Week 8 Population Flag","Y","DERIVED","CLINICAL STUDY SPONSOR"
"CDISCPILOT01","DM","01-709-1029",NA,NA,"EFFICACY","Efficacy Population Flag","Y","DERIVED","CLINICAL STUDY SPONSOR"
"CDISCPILOT01","DM","01-709-1029",NA,NA,"ITT","Intent to Treat Population Flag","Y","DERIVED","CLINICAL STUDY SPONSOR"
"CDISCPILOT01","DM","01-709-1029",NA,NA,"SAFETY","Safety Population Flag","Y","DERIVED","CLINICAL STUDY SPONSOR"
"CDISCPILOT01","DM","01-709-1081",NA,NA,"COMPLT16","Completers of Week 16 Population Flag","Y","DERIVED","CLINICAL STUDY SPONSOR"
"CDISCPILOT01","DM","01-709-1081",NA,NA,"COMPLT8","Completers of Week 8 Population Flag","Y","DERIVED","CLINICAL STUDY SPONSOR"
"CDISCPILOT01","DM","01-709-1081",NA,NA,"EFFICACY","Efficacy Population Flag","Y","DERIVED","CLINICAL STUDY SPONSOR"
"CDISCPILOT01","DM","01-709-1081",NA,NA,"ITT","Intent to Treat Population Flag","Y","DERIVED","CLINICAL STUDY SPONSOR"
"CDISCPILOT01","DM","01-709-1081",NA,NA,"SAFETY","Safety Population Flag","Y","DERIVED","CLINICAL STUDY SPONSOR"
"CDISCPILOT01","DM","01-709-1088",NA,NA,"COMPLT16","Completers of Week 16 Population Flag","Y","DERIVED","CLINICAL STUDY SPONSOR"
"CDISCPILOT01","DM","01-709-1088",NA,NA,"COMPLT24","Completers of Week 24 Population Flag","Y","DERIVED","CLINICAL STUDY SPONSOR"
"CDISCPILOT01","DM","01-709-1088",NA,NA,"COMPLT8","Completers of Week 8 Population Flag","Y","DERIVED","CLINICAL STUDY SPONSOR"
"CDISCPILOT01","DM","01-709-1088",NA,NA,"EFFICACY","Efficacy Population Flag","Y","DERIVED","CLINICAL STUDY SPONSOR"
"CDISCPILOT01","DM","01-709-1088",NA,NA,"ITT","Intent to Treat Population Flag","Y","DERIVED","CLINICAL STUDY SPONSOR"
"CDISCPILOT01","DM","01-709-1088",NA,NA,"SAFETY","Safety Population Flag","Y","DERIVED","CLINICAL STUDY SPONSOR"
"CDISCPILOT01","DM","01-709-1099",NA,NA,"COMPLT16","Completers of Week 16 Population Flag","Y","DERIVED","CLINICAL STUDY SPONSOR"
"CDISCPILOT01","DM","01-709-1099",NA,NA,"COMPLT24","Completers of Week 24 Population Flag","Y","DERIVED","CLINICAL STUDY SPONSOR"
"CDISCPILOT01","DM","01-709-1099",NA,NA,"COMPLT8","Completers of Week 8 Population Flag","Y","DERIVED","CLINICAL STUDY SPONSOR"
"CDISCPILOT01","DM","01-709-1099",NA,NA,"EFFICACY","Efficacy Population Flag","Y","DERIVED","CLINICAL STUDY SPONSOR"
"CDISCPILOT01","DM","01-709-1099",NA,NA,"ITT","Intent to Treat Population Flag","Y","DERIVED","CLINICAL STUDY SPONSOR"
"CDISCPILOT01","DM","01-709-1099",NA,NA,"SAFETY","Safety Population Flag","Y","DERIVED","CLINICAL STUDY SPONSOR"
"CDISCPILOT01","DM","01-709-1102",NA,NA,"COMPLT8","Completers of Week 8 Population Flag","Y","DERIVED","CLINICAL STUDY SPONSOR"
"CDISCPILOT01","DM","01-709-1102",NA,NA,"EFFICACY","Efficacy Population Flag","Y","DERIVED","CLINICAL STUDY SPONSOR"
"CDISCPILOT01","DM","01-709-1102",NA,NA,"ITT","Intent to Treat Population Flag","Y","DERIVED","CLINICAL STUDY SPONSOR"
"CDISCPILOT01","DM","01-709-1102",NA,NA,"SAFETY","Safety Population Flag","Y","DERIVED","CLINICAL STUDY SPONSOR"
"CDISCPILOT01","DM","01-709-1168",NA,NA,"COMPLT8","Completers of Week 8 Population Flag","Y","DERIVED","CLINICAL STUDY SPONSOR"
"CDISCPILOT01","DM","01-709-1168",NA,NA,"EFFICACY","Efficacy Population Flag","Y","DERIVED","CLINICAL STUDY SPONSOR"
"CDISCPILOT01","DM","01-709-1168",NA,NA,"ITT","Intent to Treat Population Flag","Y","DERIVED","CLINICAL STUDY SPONSOR"
"CDISCPILOT01","DM","01-709-1168",NA,NA,"SAFETY","Safety Population Flag","Y","DERIVED","CLINICAL STUDY SPONSOR"
"CDISCPILOT01","DM","01-709-1217",NA,NA,"COMPLT16","Completers of Week 16 Population Flag","Y","DERIVED","CLINICAL STUDY SPONSOR"
"CDISCPILOT01","DM","01-709-1217",NA,NA,"COMPLT8","Completers of Week 8 Population Flag","Y","DERIVED","CLINICAL STUDY SPONSOR"
"CDISCPILOT01","DM","01-709-1217",NA,NA,"EFFICACY","Efficacy Population Flag","Y","DERIVED","CLINICAL STUDY SPONSOR"
"CDISCPILOT01","DM","01-709-1217",NA,NA,"ITT","Intent to Treat Population Flag","Y","DERIVED","CLINICAL STUDY SPONSOR"
"CDISCPILOT01","DM","01-709-1217",NA,NA,"SAFETY","Safety Population Flag","Y","DERIVED","CLINICAL STUDY SPONSOR"
"CDISCPILOT01","DM","01-709-1238",NA,NA,"COMPLT8","Completers of Week 8 Population Flag","Y","DERIVED","CLINICAL STUDY SPONSOR"
"CDISCPILOT01","DM","01-709-1238",NA,NA,"EFFICACY","Efficacy Population Flag","Y","DERIVED","CLINICAL STUDY SPONSOR"
"CDISCPILOT01","DM","01-709-1238",NA,NA,"ITT","Intent to Treat Population Flag","Y","DERIVED","CLINICAL STUDY SPONSOR"
"CDISCPILOT01","DM","01-709-1238",NA,NA,"SAFETY","Safety Population Flag","Y","DERIVED","CLINICAL STUDY SPONSOR"
"CDISCPILOT01","DM","01-709-1259",NA,NA,"COMPLT16","Completers of Week 16 Population Flag","Y","DERIVED","CLINICAL STUDY SPONSOR"
"CDISCPILOT01","DM","01-709-1259",NA,NA,"COMPLT8","Completers of Week 8 Population Flag","Y","DERIVED","CLINICAL STUDY SPONSOR"
"CDISCPILOT01","DM","01-709-1259",NA,NA,"EFFICACY","Efficacy Population Flag","Y","DERIVED","CLINICAL STUDY SPONSOR"
"CDISCPILOT01","DM","01-709-1259",NA,NA,"ITT","Intent to Treat Population Flag","Y","DERIVED","CLINICAL STUDY SPONSOR"
"CDISCPILOT01","DM","01-709-1259",NA,NA,"SAFETY","Safety Population Flag","Y","DERIVED","CLINICAL STUDY SPONSOR"
"CDISCPILOT01","DM","01-709-1285",NA,NA,"COMPLT8","Completers of Week 8 Population Flag","Y","DERIVED","CLINICAL STUDY SPONSOR"
"CDISCPILOT01","DM","01-709-1285",NA,NA,"EFFICACY","Efficacy Population Flag","Y","DERIVED","CLINICAL STUDY SPONSOR"
"CDISCPILOT01","DM","01-709-1285",NA,NA,"ITT","Intent to Treat Population Flag","Y","DERIVED","CLINICAL STUDY SPONSOR"
"CDISCPILOT01","DM","01-709-1285",NA,NA,"SAFETY","Safety Population Flag","Y","DERIVED","CLINICAL STUDY SPONSOR"
"CDISCPILOT01","DM","01-709-1301",NA,NA,"COMPLT16","Completers of Week 16 Population Flag","Y","DERIVED","CLINICAL STUDY SPONSOR"
"CDISCPILOT01","DM","01-709-1301",NA,NA,"COMPLT24","Completers of Week 24 Population Flag","Y","DERIVED","CLINICAL STUDY SPONSOR"
"CDISCPILOT01","DM","01-709-1301",NA,NA,"COMPLT8","Completers of Week 8 Population Flag","Y","DERIVED","CLINICAL STUDY SPONSOR"
"CDISCPILOT01","DM","01-709-1301",NA,NA,"EFFICACY","Efficacy Population Flag","Y","DERIVED","CLINICAL STUDY SPONSOR"
"CDISCPILOT01","DM","01-709-1301",NA,NA,"ITT","Intent to Treat Population Flag","Y","DERIVED","CLINICAL STUDY SPONSOR"
"CDISCPILOT01","DM","01-709-1301",NA,NA,"SAFETY","Safety Population Flag","Y","DERIVED","CLINICAL STUDY SPONSOR"
"CDISCPILOT01","DM","01-709-1306",NA,NA,"COMPLT16","Completers of Week 16 Population Flag","Y","DERIVED","CLINICAL STUDY SPONSOR"
"CDISCPILOT01","DM","01-709-1306",NA,NA,"COMPLT8","Completers of Week 8 Population Flag","Y","DERIVED","CLINICAL STUDY SPONSOR"
"CDISCPILOT01","DM","01-709-1306",NA,NA,"EFFICACY","Efficacy Population Flag","Y","DERIVED","CLINICAL STUDY SPONSOR"
"CDISCPILOT01","DM","01-709-1306",NA,NA,"ITT","Intent to Treat Population Flag","Y","DERIVED","CLINICAL STUDY SPONSOR"
"CDISCPILOT01","DM","01-709-1306",NA,NA,"SAFETY","Safety Population Flag","Y","DERIVED","CLINICAL STUDY SPONSOR"
"CDISCPILOT01","DM","01-709-1309",NA,NA,"COMPLT16","Completers of Week 16 Population Flag","Y","DERIVED","CLINICAL STUDY SPONSOR"
"CDISCPILOT01","DM","01-709-1309",NA,NA,"COMPLT24","Completers of Week 24 Population Flag","Y","DERIVED","CLINICAL STUDY SPONSOR"
"CDISCPILOT01","DM","01-709-1309",NA,NA,"COMPLT8","Completers of Week 8 Population Flag","Y","DERIVED","CLINICAL STUDY SPONSOR"
"CDISCPILOT01","DM","01-709-1309",NA,NA,"EFFICACY","Efficacy Population Flag","Y","DERIVED","CLINICAL STUDY SPONSOR"
"CDISCPILOT01","DM","01-709-1309",NA,NA,"ITT","Intent to Treat Population Flag","Y","DERIVED","CLINICAL STUDY SPONSOR"
"CDISCPILOT01","DM","01-709-1309",NA,NA,"SAFETY","Safety Population Flag","Y","DERIVED","CLINICAL STUDY SPONSOR"
"CDISCPILOT01","DM","01-709-1312",NA,NA,"COMPLT16","Completers of Week 16 Population Flag","Y","DERIVED","CLINICAL STUDY SPONSOR"
"CDISCPILOT01","DM","01-709-1312",NA,NA,"COMPLT24","Completers of Week 24 Population Flag","Y","DERIVED","CLINICAL STUDY SPONSOR"
"CDISCPILOT01","DM","01-709-1312",NA,NA,"COMPLT8","Completers of Week 8 Population Flag","Y","DERIVED","CLINICAL STUDY SPONSOR"
"CDISCPILOT01","DM","01-709-1312",NA,NA,"EFFICACY","Efficacy Population Flag","Y","DERIVED","CLINICAL STUDY SPONSOR"
"CDISCPILOT01","DM","01-709-1312",NA,NA,"ITT","Intent to Treat Population Flag","Y","DERIVED","CLINICAL STUDY SPONSOR"
"CDISCPILOT01","DM","01-709-1312",NA,NA,"SAFETY","Safety Population Flag","Y","DERIVED","CLINICAL STUDY SPONSOR"
"CDISCPILOT01","DM","01-709-1326",NA,NA,"COMPLT16","Completers of Week 16 Population Flag","Y","DERIVED","CLINICAL STUDY SPONSOR"
"CDISCPILOT01","DM","01-709-1326",NA,NA,"COMPLT24","Completers of Week 24 Population Flag","Y","DERIVED","CLINICAL STUDY SPONSOR"
"CDISCPILOT01","DM","01-709-1326",NA,NA,"COMPLT8","Completers of Week 8 Population Flag","Y","DERIVED","CLINICAL STUDY SPONSOR"
"CDISCPILOT01","DM","01-709-1326",NA,NA,"EFFICACY","Efficacy Population Flag","Y","DERIVED","CLINICAL STUDY SPONSOR"
"CDISCPILOT01","DM","01-709-1326",NA,NA,"ITT","Intent to Treat Population Flag","Y","DERIVED","CLINICAL STUDY SPONSOR"
"CDISCPILOT01","DM","01-709-1326",NA,NA,"SAFETY","Safety Population Flag","Y","DERIVED","CLINICAL STUDY SPONSOR"
"CDISCPILOT01","DM","01-709-1329",NA,NA,"EFFICACY","Efficacy Population Flag","Y","DERIVED","CLINICAL STUDY SPONSOR"
"CDISCPILOT01","DM","01-709-1329",NA,NA,"ITT","Intent to Treat Population Flag","Y","DERIVED","CLINICAL STUDY SPONSOR"
"CDISCPILOT01","DM","01-709-1329",NA,NA,"SAFETY","Safety Population Flag","Y","DERIVED","CLINICAL STUDY SPONSOR"
"CDISCPILOT01","DM","01-709-1339",NA,NA,"COMPLT16","Completers of Week 16 Population Flag","Y","DERIVED","CLINICAL STUDY SPONSOR"
"CDISCPILOT01","DM","01-709-1339",NA,NA,"COMPLT24","Completers of Week 24 Population Flag","Y","DERIVED","CLINICAL STUDY SPONSOR"
"CDISCPILOT01","DM","01-709-1339",NA,NA,"COMPLT8","Completers of Week 8 Population Flag","Y","DERIVED","CLINICAL STUDY SPONSOR"
"CDISCPILOT01","DM","01-709-1339",NA,NA,"EFFICACY","Efficacy Population Flag","Y","DERIVED","CLINICAL STUDY SPONSOR"
"CDISCPILOT01","DM","01-709-1339",NA,NA,"ITT","Intent to Treat Population Flag","Y","DERIVED","CLINICAL STUDY SPONSOR"
"CDISCPILOT01","DM","01-709-1339",NA,NA,"SAFETY","Safety Population Flag","Y","DERIVED","CLINICAL STUDY SPONSOR"
"CDISCPILOT01","DM","01-709-1424",NA,NA,"EFFICACY","Efficacy Population Flag","Y","DERIVED","CLINICAL STUDY SPONSOR"
"CDISCPILOT01","DM","01-709-1424",NA,NA,"ITT","Intent to Treat Population Flag","Y","DERIVED","CLINICAL STUDY SPONSOR"
"CDISCPILOT01","DM","01-709-1424",NA,NA,"SAFETY","Safety Population Flag","Y","DERIVED","CLINICAL STUDY SPONSOR"
"CDISCPILOT01","DM","01-710-1002",NA,NA,"EFFICACY","Efficacy Population Flag","Y","DERIVED","CLINICAL STUDY SPONSOR"
"CDISCPILOT01","DM","01-710-1002",NA,NA,"ITT","Intent to Treat Population Flag","Y","DERIVED","CLINICAL STUDY SPONSOR"
"CDISCPILOT01","DM","01-710-1002",NA,NA,"SAFETY","Safety Population Flag","Y","DERIVED","CLINICAL STUDY SPONSOR"
"CDISCPILOT01","DM","01-710-1006",NA,NA,"COMPLT16","Completers of Week 16 Population Flag","Y","DERIVED","CLINICAL STUDY SPONSOR"
"CDISCPILOT01","DM","01-710-1006",NA,NA,"COMPLT24","Completers of Week 24 Population Flag","Y","DERIVED","CLINICAL STUDY SPONSOR"
"CDISCPILOT01","DM","01-710-1006",NA,NA,"COMPLT8","Completers of Week 8 Population Flag","Y","DERIVED","CLINICAL STUDY SPONSOR"
"CDISCPILOT01","DM","01-710-1006",NA,NA,"EFFICACY","Efficacy Population Flag","Y","DERIVED","CLINICAL STUDY SPONSOR"
"CDISCPILOT01","DM","01-710-1006",NA,NA,"ITT","Intent to Treat Population Flag","Y","DERIVED","CLINICAL STUDY SPONSOR"
"CDISCPILOT01","DM","01-710-1006",NA,NA,"SAFETY","Safety Population Flag","Y","DERIVED","CLINICAL STUDY SPONSOR"
"CDISCPILOT01","DM","01-710-1021",NA,NA,"ITT","Intent to Treat Population Flag","Y","DERIVED","CLINICAL STUDY SPONSOR"
"CDISCPILOT01","DM","01-710-1021",NA,NA,"SAFETY","Safety Population Flag","Y","DERIVED","CLINICAL STUDY SPONSOR"
"CDISCPILOT01","DM","01-710-1027",NA,NA,"COMPLT16","Completers of Week 16 Population Flag","Y","DERIVED","CLINICAL STUDY SPONSOR"
"CDISCPILOT01","DM","01-710-1027",NA,NA,"COMPLT24","Completers of Week 24 Population Flag","Y","DERIVED","CLINICAL STUDY SPONSOR"
"CDISCPILOT01","DM","01-710-1027",NA,NA,"COMPLT8","Completers of Week 8 Population Flag","Y","DERIVED","CLINICAL STUDY SPONSOR"
"CDISCPILOT01","DM","01-710-1027",NA,NA,"EFFICACY","Efficacy Population Flag","Y","DERIVED","CLINICAL STUDY SPONSOR"
"CDISCPILOT01","DM","01-710-1027",NA,NA,"ITT","Intent to Treat Population Flag","Y","DERIVED","CLINICAL STUDY SPONSOR"
"CDISCPILOT01","DM","01-710-1027",NA,NA,"SAFETY","Safety Population Flag","Y","DERIVED","CLINICAL STUDY SPONSOR"
"CDISCPILOT01","DM","01-710-1045",NA,NA,"COMPLT8","Completers of Week 8 Population Flag","Y","DERIVED","CLINICAL STUDY SPONSOR"
"CDISCPILOT01","DM","01-710-1045",NA,NA,"EFFICACY","Efficacy Population Flag","Y","DERIVED","CLINICAL STUDY SPONSOR"
"CDISCPILOT01","DM","01-710-1045",NA,NA,"ITT","Intent to Treat Population Flag","Y","DERIVED","CLINICAL STUDY SPONSOR"
"CDISCPILOT01","DM","01-710-1045",NA,NA,"SAFETY","Safety Population Flag","Y","DERIVED","CLINICAL STUDY SPONSOR"
"CDISCPILOT01","DM","01-710-1053",NA,NA,"COMPLT8","Completers of Week 8 Population Flag","Y","DERIVED","CLINICAL STUDY SPONSOR"
"CDISCPILOT01","DM","01-710-1053",NA,NA,"EFFICACY","Efficacy Population Flag","Y","DERIVED","CLINICAL STUDY SPONSOR"
"CDISCPILOT01","DM","01-710-1053",NA,NA,"ITT","Intent to Treat Population Flag","Y","DERIVED","CLINICAL STUDY SPONSOR"
"CDISCPILOT01","DM","01-710-1053",NA,NA,"SAFETY","Safety Population Flag","Y","DERIVED","CLINICAL STUDY SPONSOR"
"CDISCPILOT01","DM","01-710-1060",NA,NA,"COMPLT16","Completers of Week 16 Population Flag","Y","DERIVED","CLINICAL STUDY SPONSOR"
"CDISCPILOT01","DM","01-710-1060",NA,NA,"COMPLT24","Completers of Week 24 Population Flag","Y","DERIVED","CLINICAL STUDY SPONSOR"
"CDISCPILOT01","DM","01-710-1060",NA,NA,"COMPLT8","Completers of Week 8 Population Flag","Y","DERIVED","CLINICAL STUDY SPONSOR"
"CDISCPILOT01","DM","01-710-1060",NA,NA,"EFFICACY","Efficacy Population Flag","Y","DERIVED","CLINICAL STUDY SPONSOR"
"CDISCPILOT01","DM","01-710-1060",NA,NA,"ITT","Intent to Treat Population Flag","Y","DERIVED","CLINICAL STUDY SPONSOR"
"CDISCPILOT01","DM","01-710-1060",NA,NA,"SAFETY","Safety Population Flag","Y","DERIVED","CLINICAL STUDY SPONSOR"
"CDISCPILOT01","DM","01-710-1070",NA,NA,"COMPLT16","Completers of Week 16 Population Flag","Y","DERIVED","CLINICAL STUDY SPONSOR"
"CDISCPILOT01","DM","01-710-1070",NA,NA,"COMPLT8","Completers of Week 8 Population Flag","Y","DERIVED","CLINICAL STUDY SPONSOR"
"CDISCPILOT01","DM","01-710-1070",NA,NA,"EFFICACY","Efficacy Population Flag","Y","DERIVED","CLINICAL STUDY SPONSOR"
"CDISCPILOT01","DM","01-710-1070",NA,NA,"ITT","Intent to Treat Population Flag","Y","DERIVED","CLINICAL STUDY SPONSOR"
"CDISCPILOT01","DM","01-710-1070",NA,NA,"SAFETY","Safety Population Flag","Y","DERIVED","CLINICAL STUDY SPONSOR"
"CDISCPILOT01","DM","01-710-1077",NA,NA,"COMPLT16","Completers of Week 16 Population Flag","Y","DERIVED","CLINICAL STUDY SPONSOR"
"CDISCPILOT01","DM","01-710-1077",NA,NA,"COMPLT24","Completers of Week 24 Population Flag","Y","DERIVED","CLINICAL STUDY SPONSOR"
"CDISCPILOT01","DM","01-710-1077",NA,NA,"COMPLT8","Completers of Week 8 Population Flag","Y","DERIVED","CLINICAL STUDY SPONSOR"
"CDISCPILOT01","DM","01-710-1077",NA,NA,"EFFICACY","Efficacy Population Flag","Y","DERIVED","CLINICAL STUDY SPONSOR"
"CDISCPILOT01","DM","01-710-1077",NA,NA,"ITT","Intent to Treat Population Flag","Y","DERIVED","CLINICAL STUDY SPONSOR"
"CDISCPILOT01","DM","01-710-1077",NA,NA,"SAFETY","Safety Population Flag","Y","DERIVED","CLINICAL STUDY SPONSOR"
"CDISCPILOT01","DM","01-710-1078",NA,NA,"COMPLT16","Completers of Week 16 Population Flag","Y","DERIVED","CLINICAL STUDY SPONSOR"
"CDISCPILOT01","DM","01-710-1078",NA,NA,"COMPLT24","Completers of Week 24 Population Flag","Y","DERIVED","CLINICAL STUDY SPONSOR"
"CDISCPILOT01","DM","01-710-1078",NA,NA,"COMPLT8","Completers of Week 8 Population Flag","Y","DERIVED","CLINICAL STUDY SPONSOR"
"CDISCPILOT01","DM","01-710-1078",NA,NA,"EFFICACY","Efficacy Population Flag","Y","DERIVED","CLINICAL STUDY SPONSOR"
"CDISCPILOT01","DM","01-710-1078",NA,NA,"ITT","Intent to Treat Population Flag","Y","DERIVED","CLINICAL STUDY SPONSOR"
"CDISCPILOT01","DM","01-710-1078",NA,NA,"SAFETY","Safety Population Flag","Y","DERIVED","CLINICAL STUDY SPONSOR"
"CDISCPILOT01","DM","01-710-1083",NA,NA,"ITT","Intent to Treat Population Flag","Y","DERIVED","CLINICAL STUDY SPONSOR"
"CDISCPILOT01","DM","01-710-1083",NA,NA,"SAFETY","Safety Population Flag","Y","DERIVED","CLINICAL STUDY SPONSOR"
"CDISCPILOT01","DM","01-710-1137",NA,NA,"ITT","Intent to Treat Population Flag","Y","DERIVED","CLINICAL STUDY SPONSOR"
"CDISCPILOT01","DM","01-710-1137",NA,NA,"SAFETY","Safety Population Flag","Y","DERIVED","CLINICAL STUDY SPONSOR"
"CDISCPILOT01","DM","01-710-1142",NA,NA,"EFFICACY","Efficacy Population Flag","Y","DERIVED","CLINICAL STUDY SPONSOR"
"CDISCPILOT01","DM","01-710-1142",NA,NA,"ITT","Intent to Treat Population Flag","Y","DERIVED","CLINICAL STUDY SPONSOR"
"CDISCPILOT01","DM","01-710-1142",NA,NA,"SAFETY","Safety Population Flag","Y","DERIVED","CLINICAL STUDY SPONSOR"
"CDISCPILOT01","DM","01-710-1154",NA,NA,"EFFICACY","Efficacy Population Flag","Y","DERIVED","CLINICAL STUDY SPONSOR"
"CDISCPILOT01","DM","01-710-1154",NA,NA,"ITT","Intent to Treat Population Flag","Y","DERIVED","CLINICAL STUDY SPONSOR"
"CDISCPILOT01","DM","01-710-1154",NA,NA,"SAFETY","Safety Population Flag","Y","DERIVED","CLINICAL STUDY SPONSOR"
"CDISCPILOT01","DM","01-710-1166",NA,NA,"COMPLT16","Completers of Week 16 Population Flag","Y","DERIVED","CLINICAL STUDY SPONSOR"
"CDISCPILOT01","DM","01-710-1166",NA,NA,"COMPLT8","Completers of Week 8 Population Flag","Y","DERIVED","CLINICAL STUDY SPONSOR"
"CDISCPILOT01","DM","01-710-1166",NA,NA,"EFFICACY","Efficacy Population Flag","Y","DERIVED","CLINICAL STUDY SPONSOR"
"CDISCPILOT01","DM","01-710-1166",NA,NA,"ITT","Intent to Treat Population Flag","Y","DERIVED","CLINICAL STUDY SPONSOR"
"CDISCPILOT01","DM","01-710-1166",NA,NA,"SAFETY","Safety Population Flag","Y","DERIVED","CLINICAL STUDY SPONSOR"
"CDISCPILOT01","DM","01-710-1183",NA,NA,"COMPLT16","Completers of Week 16 Population Flag","Y","DERIVED","CLINICAL STUDY SPONSOR"
"CDISCPILOT01","DM","01-710-1183",NA,NA,"COMPLT24","Completers of Week 24 Population Flag","Y","DERIVED","CLINICAL STUDY SPONSOR"
"CDISCPILOT01","DM","01-710-1183",NA,NA,"COMPLT8","Completers of Week 8 Population Flag","Y","DERIVED","CLINICAL STUDY SPONSOR"
"CDISCPILOT01","DM","01-710-1183",NA,NA,"EFFICACY","Efficacy Population Flag","Y","DERIVED","CLINICAL STUDY SPONSOR"
"CDISCPILOT01","DM","01-710-1183",NA,NA,"ITT","Intent to Treat Population Flag","Y","DERIVED","CLINICAL STUDY SPONSOR"
"CDISCPILOT01","DM","01-710-1183",NA,NA,"SAFETY","Safety Population Flag","Y","DERIVED","CLINICAL STUDY SPONSOR"
"CDISCPILOT01","DM","01-710-1187",NA,NA,"COMPLT16","Completers of Week 16 Population Flag","Y","DERIVED","CLINICAL STUDY SPONSOR"
"CDISCPILOT01","DM","01-710-1187",NA,NA,"COMPLT24","Completers of Week 24 Population Flag","Y","DERIVED","CLINICAL STUDY SPONSOR"
"CDISCPILOT01","DM","01-710-1187",NA,NA,"COMPLT8","Completers of Week 8 Population Flag","Y","DERIVED","CLINICAL STUDY SPONSOR"
"CDISCPILOT01","DM","01-710-1187",NA,NA,"EFFICACY","Efficacy Population Flag","Y","DERIVED","CLINICAL STUDY SPONSOR"
"CDISCPILOT01","DM","01-710-1187",NA,NA,"ITT","Intent to Treat Population Flag","Y","DERIVED","CLINICAL STUDY SPONSOR"
"CDISCPILOT01","DM","01-710-1187",NA,NA,"SAFETY","Safety Population Flag","Y","DERIVED","CLINICAL STUDY SPONSOR"
"CDISCPILOT01","DM","01-710-1235",NA,NA,"COMPLT16","Completers of Week 16 Population Flag","Y","DERIVED","CLINICAL STUDY SPONSOR"
"CDISCPILOT01","DM","01-710-1235",NA,NA,"COMPLT24","Completers of Week 24 Population Flag","Y","DERIVED","CLINICAL STUDY SPONSOR"
"CDISCPILOT01","DM","01-710-1235",NA,NA,"COMPLT8","Completers of Week 8 Population Flag","Y","DERIVED","CLINICAL STUDY SPONSOR"
"CDISCPILOT01","DM","01-710-1235",NA,NA,"EFFICACY","Efficacy Population Flag","Y","DERIVED","CLINICAL STUDY SPONSOR"
"CDISCPILOT01","DM","01-710-1235",NA,NA,"ITT","Intent to Treat Population Flag","Y","DERIVED","CLINICAL STUDY SPONSOR"
"CDISCPILOT01","DM","01-710-1235",NA,NA,"SAFETY","Safety Population Flag","Y","DERIVED","CLINICAL STUDY SPONSOR"
"CDISCPILOT01","DM","01-710-1249",NA,NA,"COMPLT16","Completers of Week 16 Population Flag","Y","DERIVED","CLINICAL STUDY SPONSOR"
"CDISCPILOT01","DM","01-710-1249",NA,NA,"COMPLT24","Completers of Week 24 Population Flag","Y","DERIVED","CLINICAL STUDY SPONSOR"
"CDISCPILOT01","DM","01-710-1249",NA,NA,"COMPLT8","Completers of Week 8 Population Flag","Y","DERIVED","CLINICAL STUDY SPONSOR"
"CDISCPILOT01","DM","01-710-1249",NA,NA,"EFFICACY","Efficacy Population Flag","Y","DERIVED","CLINICAL STUDY SPONSOR"
"CDISCPILOT01","DM","01-710-1249",NA,NA,"ITT","Intent to Treat Population Flag","Y","DERIVED","CLINICAL STUDY SPONSOR"
"CDISCPILOT01","DM","01-710-1249",NA,NA,"SAFETY","Safety Population Flag","Y","DERIVED","CLINICAL STUDY SPONSOR"
"CDISCPILOT01","DM","01-710-1264",NA,NA,"COMPLT16","Completers of Week 16 Population Flag","Y","DERIVED","CLINICAL STUDY SPONSOR"
"CDISCPILOT01","DM","01-710-1264",NA,NA,"COMPLT8","Completers of Week 8 Population Flag","Y","DERIVED","CLINICAL STUDY SPONSOR"
"CDISCPILOT01","DM","01-710-1264",NA,NA,"EFFICACY","Efficacy Population Flag","Y","DERIVED","CLINICAL STUDY SPONSOR"
"CDISCPILOT01","DM","01-710-1264",NA,NA,"ITT","Intent to Treat Population Flag","Y","DERIVED","CLINICAL STUDY SPONSOR"
"CDISCPILOT01","DM","01-710-1264",NA,NA,"SAFETY","Safety Population Flag","Y","DERIVED","CLINICAL STUDY SPONSOR"
"CDISCPILOT01","DM","01-710-1270",NA,NA,"EFFICACY","Efficacy Population Flag","Y","DERIVED","CLINICAL STUDY SPONSOR"
"CDISCPILOT01","DM","01-710-1270",NA,NA,"ITT","Intent to Treat Population Flag","Y","DERIVED","CLINICAL STUDY SPONSOR"
"CDISCPILOT01","DM","01-710-1270",NA,NA,"SAFETY","Safety Population Flag","Y","DERIVED","CLINICAL STUDY SPONSOR"
"CDISCPILOT01","DM","01-710-1271",NA,NA,"COMPLT8","Completers of Week 8 Population Flag","Y","DERIVED","CLINICAL STUDY SPONSOR"
"CDISCPILOT01","DM","01-710-1271",NA,NA,"ITT","Intent to Treat Population Flag","Y","DERIVED","CLINICAL STUDY SPONSOR"
"CDISCPILOT01","DM","01-710-1271",NA,NA,"SAFETY","Safety Population Flag","Y","DERIVED","CLINICAL STUDY SPONSOR"
"CDISCPILOT01","DM","01-710-1278",NA,NA,"COMPLT8","Completers of Week 8 Population Flag","Y","DERIVED","CLINICAL STUDY SPONSOR"
"CDISCPILOT01","DM","01-710-1278",NA,NA,"EFFICACY","Efficacy Population Flag","Y","DERIVED","CLINICAL STUDY SPONSOR"
"CDISCPILOT01","DM","01-710-1278",NA,NA,"ITT","Intent to Treat Population Flag","Y","DERIVED","CLINICAL STUDY SPONSOR"
"CDISCPILOT01","DM","01-710-1278",NA,NA,"SAFETY","Safety Population Flag","Y","DERIVED","CLINICAL STUDY SPONSOR"
"CDISCPILOT01","DM","01-710-1300",NA,NA,"COMPLT8","Completers of Week 8 Population Flag","Y","DERIVED","CLINICAL STUDY SPONSOR"
"CDISCPILOT01","DM","01-710-1300",NA,NA,"EFFICACY","Efficacy Population Flag","Y","DERIVED","CLINICAL STUDY SPONSOR"
"CDISCPILOT01","DM","01-710-1300",NA,NA,"ITT","Intent to Treat Population Flag","Y","DERIVED","CLINICAL STUDY SPONSOR"
"CDISCPILOT01","DM","01-710-1300",NA,NA,"SAFETY","Safety Population Flag","Y","DERIVED","CLINICAL STUDY SPONSOR"
"CDISCPILOT01","DM","01-710-1314",NA,NA,"ITT","Intent to Treat Population Flag","Y","DERIVED","CLINICAL STUDY SPONSOR"
"CDISCPILOT01","DM","01-710-1314",NA,NA,"SAFETY","Safety Population Flag","Y","DERIVED","CLINICAL STUDY SPONSOR"
"CDISCPILOT01","DM","01-710-1315",NA,NA,"COMPLT16","Completers of Week 16 Population Flag","Y","DERIVED","CLINICAL STUDY SPONSOR"
"CDISCPILOT01","DM","01-710-1315",NA,NA,"COMPLT8","Completers of Week 8 Population Flag","Y","DERIVED","CLINICAL STUDY SPONSOR"
"CDISCPILOT01","DM","01-710-1315",NA,NA,"EFFICACY","Efficacy Population Flag","Y","DERIVED","CLINICAL STUDY SPONSOR"
"CDISCPILOT01","DM","01-710-1315",NA,NA,"ITT","Intent to Treat Population Flag","Y","DERIVED","CLINICAL STUDY SPONSOR"
"CDISCPILOT01","DM","01-710-1315",NA,NA,"SAFETY","Safety Population Flag","Y","DERIVED","CLINICAL STUDY SPONSOR"
"CDISCPILOT01","DM","01-710-1354",NA,NA,"COMPLT16","Completers of Week 16 Population Flag","Y","DERIVED","CLINICAL STUDY SPONSOR"
"CDISCPILOT01","DM","01-710-1354",NA,NA,"COMPLT24","Completers of Week 24 Population Flag","Y","DERIVED","CLINICAL STUDY SPONSOR"
"CDISCPILOT01","DM","01-710-1354",NA,NA,"COMPLT8","Completers of Week 8 Population Flag","Y","DERIVED","CLINICAL STUDY SPONSOR"
"CDISCPILOT01","DM","01-710-1354",NA,NA,"EFFICACY","Efficacy Population Flag","Y","DERIVED","CLINICAL STUDY SPONSOR"
"CDISCPILOT01","DM","01-710-1354",NA,NA,"ITT","Intent to Treat Population Flag","Y","DERIVED","CLINICAL STUDY SPONSOR"
"CDISCPILOT01","DM","01-710-1354",NA,NA,"SAFETY","Safety Population Flag","Y","DERIVED","CLINICAL STUDY SPONSOR"
"CDISCPILOT01","DM","01-710-1358",NA,NA,"COMPLT16","Completers of Week 16 Population Flag","Y","DERIVED","CLINICAL STUDY SPONSOR"
"CDISCPILOT01","DM","01-710-1358",NA,NA,"COMPLT24","Completers of Week 24 Population Flag","Y","DERIVED","CLINICAL STUDY SPONSOR"
"CDISCPILOT01","DM","01-710-1358",NA,NA,"COMPLT8","Completers of Week 8 Population Flag","Y","DERIVED","CLINICAL STUDY SPONSOR"
"CDISCPILOT01","DM","01-710-1358",NA,NA,"EFFICACY","Efficacy Population Flag","Y","DERIVED","CLINICAL STUDY SPONSOR"
"CDISCPILOT01","DM","01-710-1358",NA,NA,"ITT","Intent to Treat Population Flag","Y","DERIVED","CLINICAL STUDY SPONSOR"
"CDISCPILOT01","DM","01-710-1358",NA,NA,"SAFETY","Safety Population Flag","Y","DERIVED","CLINICAL STUDY SPONSOR"
"CDISCPILOT01","DM","01-710-1368",NA,NA,"COMPLT16","Completers of Week 16 Population Flag","Y","DERIVED","CLINICAL STUDY SPONSOR"
"CDISCPILOT01","DM","01-710-1368",NA,NA,"COMPLT24","Completers of Week 24 Population Flag","Y","DERIVED","CLINICAL STUDY SPONSOR"
"CDISCPILOT01","DM","01-710-1368",NA,NA,"COMPLT8","Completers of Week 8 Population Flag","Y","DERIVED","CLINICAL STUDY SPONSOR"
"CDISCPILOT01","DM","01-710-1368",NA,NA,"EFFICACY","Efficacy Population Flag","Y","DERIVED","CLINICAL STUDY SPONSOR"
"CDISCPILOT01","DM","01-710-1368",NA,NA,"ITT","Intent to Treat Population Flag","Y","DERIVED","CLINICAL STUDY SPONSOR"
"CDISCPILOT01","DM","01-710-1368",NA,NA,"SAFETY","Safety Population Flag","Y","DERIVED","CLINICAL STUDY SPONSOR"
"CDISCPILOT01","DM","01-710-1385",NA,NA,"COMPLT16","Completers of Week 16 Population Flag","Y","DERIVED","CLINICAL STUDY SPONSOR"
"CDISCPILOT01","DM","01-710-1385",NA,NA,"COMPLT8","Completers of Week 8 Population Flag","Y","DERIVED","CLINICAL STUDY SPONSOR"
"CDISCPILOT01","DM","01-710-1385",NA,NA,"EFFICACY","Efficacy Population Flag","Y","DERIVED","CLINICAL STUDY SPONSOR"
"CDISCPILOT01","DM","01-710-1385",NA,NA,"ITT","Intent to Treat Population Flag","Y","DERIVED","CLINICAL STUDY SPONSOR"
"CDISCPILOT01","DM","01-710-1385",NA,NA,"SAFETY","Safety Population Flag","Y","DERIVED","CLINICAL STUDY SPONSOR"
"CDISCPILOT01","DM","01-710-1408",NA,NA,"COMPLT16","Completers of Week 16 Population Flag","Y","DERIVED","CLINICAL STUDY SPONSOR"
"CDISCPILOT01","DM","01-710-1408",NA,NA,"COMPLT24","Completers of Week 24 Population Flag","Y","DERIVED","CLINICAL STUDY SPONSOR"
"CDISCPILOT01","DM","01-710-1408",NA,NA,"COMPLT8","Completers of Week 8 Population Flag","Y","DERIVED","CLINICAL STUDY SPONSOR"
"CDISCPILOT01","DM","01-710-1408",NA,NA,"EFFICACY","Efficacy Population Flag","Y","DERIVED","CLINICAL STUDY SPONSOR"
"CDISCPILOT01","DM","01-710-1408",NA,NA,"ITT","Intent to Treat Population Flag","Y","DERIVED","CLINICAL STUDY SPONSOR"
"CDISCPILOT01","DM","01-710-1408",NA,NA,"SAFETY","Safety Population Flag","Y","DERIVED","CLINICAL STUDY SPONSOR"
"CDISCPILOT01","DM","01-711-1012",NA,NA,"EFFICACY","Efficacy Population Flag","Y","DERIVED","CLINICAL STUDY SPONSOR"
"CDISCPILOT01","DM","01-711-1012",NA,NA,"ITT","Intent to Treat Population Flag","Y","DERIVED","CLINICAL STUDY SPONSOR"
"CDISCPILOT01","DM","01-711-1012",NA,NA,"SAFETY","Safety Population Flag","Y","DERIVED","CLINICAL STUDY SPONSOR"
"CDISCPILOT01","DM","01-711-1036",NA,NA,"COMPLT16","Completers of Week 16 Population Flag","Y","DERIVED","CLINICAL STUDY SPONSOR"
"CDISCPILOT01","DM","01-711-1036",NA,NA,"COMPLT24","Completers of Week 24 Population Flag","Y","DERIVED","CLINICAL STUDY SPONSOR"
"CDISCPILOT01","DM","01-711-1036",NA,NA,"COMPLT8","Completers of Week 8 Population Flag","Y","DERIVED","CLINICAL STUDY SPONSOR"
"CDISCPILOT01","DM","01-711-1036",NA,NA,"EFFICACY","Efficacy Population Flag","Y","DERIVED","CLINICAL STUDY SPONSOR"
"CDISCPILOT01","DM","01-711-1036",NA,NA,"ITT","Intent to Treat Population Flag","Y","DERIVED","CLINICAL STUDY SPONSOR"
"CDISCPILOT01","DM","01-711-1036",NA,NA,"SAFETY","Safety Population Flag","Y","DERIVED","CLINICAL STUDY SPONSOR"
"CDISCPILOT01","DM","01-711-1143",NA,NA,"COMPLT8","Completers of Week 8 Population Flag","Y","DERIVED","CLINICAL STUDY SPONSOR"
"CDISCPILOT01","DM","01-711-1143",NA,NA,"EFFICACY","Efficacy Population Flag","Y","DERIVED","CLINICAL STUDY SPONSOR"
"CDISCPILOT01","DM","01-711-1143",NA,NA,"ITT","Intent to Treat Population Flag","Y","DERIVED","CLINICAL STUDY SPONSOR"
"CDISCPILOT01","DM","01-711-1143",NA,NA,"SAFETY","Safety Population Flag","Y","DERIVED","CLINICAL STUDY SPONSOR"
"CDISCPILOT01","DM","01-711-1433",NA,NA,"ITT","Intent to Treat Population Flag","Y","DERIVED","CLINICAL STUDY SPONSOR"
"CDISCPILOT01","DM","01-711-1433",NA,NA,"SAFETY","Safety Population Flag","Y","DERIVED","CLINICAL STUDY SPONSOR"
"CDISCPILOT01","DM","01-713-1043",NA,NA,"COMPLT16","Completers of Week 16 Population Flag","Y","DERIVED","CLINICAL STUDY SPONSOR"
"CDISCPILOT01","DM","01-713-1043",NA,NA,"COMPLT24","Completers of Week 24 Population Flag","Y","DERIVED","CLINICAL STUDY SPONSOR"
"CDISCPILOT01","DM","01-713-1043",NA,NA,"COMPLT8","Completers of Week 8 Population Flag","Y","DERIVED","CLINICAL STUDY SPONSOR"
"CDISCPILOT01","DM","01-713-1043",NA,NA,"EFFICACY","Efficacy Population Flag","Y","DERIVED","CLINICAL STUDY SPONSOR"
"CDISCPILOT01","DM","01-713-1043",NA,NA,"ITT","Intent to Treat Population Flag","Y","DERIVED","CLINICAL STUDY SPONSOR"
"CDISCPILOT01","DM","01-713-1043",NA,NA,"SAFETY","Safety Population Flag","Y","DERIVED","CLINICAL STUDY SPONSOR"
"CDISCPILOT01","DM","01-713-1073",NA,NA,"COMPLT16","Completers of Week 16 Population Flag","Y","DERIVED","CLINICAL STUDY SPONSOR"
"CDISCPILOT01","DM","01-713-1073",NA,NA,"COMPLT24","Completers of Week 24 Population Flag","Y","DERIVED","CLINICAL STUDY SPONSOR"
"CDISCPILOT01","DM","01-713-1073",NA,NA,"COMPLT8","Completers of Week 8 Population Flag","Y","DERIVED","CLINICAL STUDY SPONSOR"
"CDISCPILOT01","DM","01-713-1073",NA,NA,"EFFICACY","Efficacy Population Flag","Y","DERIVED","CLINICAL STUDY SPONSOR"
"CDISCPILOT01","DM","01-713-1073",NA,NA,"ITT","Intent to Treat Population Flag","Y","DERIVED","CLINICAL STUDY SPONSOR"
"CDISCPILOT01","DM","01-713-1073",NA,NA,"SAFETY","Safety Population Flag","Y","DERIVED","CLINICAL STUDY SPONSOR"
"CDISCPILOT01","DM","01-713-1106",NA,NA,"COMPLT16","Completers of Week 16 Population Flag","Y","DERIVED","CLINICAL STUDY SPONSOR"
"CDISCPILOT01","DM","01-713-1106",NA,NA,"COMPLT24","Completers of Week 24 Population Flag","Y","DERIVED","CLINICAL STUDY SPONSOR"
"CDISCPILOT01","DM","01-713-1106",NA,NA,"COMPLT8","Completers of Week 8 Population Flag","Y","DERIVED","CLINICAL STUDY SPONSOR"
"CDISCPILOT01","DM","01-713-1106",NA,NA,"EFFICACY","Efficacy Population Flag","Y","DERIVED","CLINICAL STUDY SPONSOR"
"CDISCPILOT01","DM","01-713-1106",NA,NA,"ITT","Intent to Treat Population Flag","Y","DERIVED","CLINICAL STUDY SPONSOR"
"CDISCPILOT01","DM","01-713-1106",NA,NA,"SAFETY","Safety Population Flag","Y","DERIVED","CLINICAL STUDY SPONSOR"
"CDISCPILOT01","DM","01-713-1141",NA,NA,"ITT","Intent to Treat Population Flag","Y","DERIVED","CLINICAL STUDY SPONSOR"
"CDISCPILOT01","DM","01-713-1141",NA,NA,"SAFETY","Safety Population Flag","Y","DERIVED","CLINICAL STUDY SPONSOR"
"CDISCPILOT01","DM","01-713-1179",NA,NA,"COMPLT16","Completers of Week 16 Population Flag","Y","DERIVED","CLINICAL STUDY SPONSOR"
"CDISCPILOT01","DM","01-713-1179",NA,NA,"COMPLT24","Completers of Week 24 Population Flag","Y","DERIVED","CLINICAL STUDY SPONSOR"
"CDISCPILOT01","DM","01-713-1179",NA,NA,"COMPLT8","Completers of Week 8 Population Flag","Y","DERIVED","CLINICAL STUDY SPONSOR"
"CDISCPILOT01","DM","01-713-1179",NA,NA,"EFFICACY","Efficacy Population Flag","Y","DERIVED","CLINICAL STUDY SPONSOR"
"CDISCPILOT01","DM","01-713-1179",NA,NA,"ITT","Intent to Treat Population Flag","Y","DERIVED","CLINICAL STUDY SPONSOR"
"CDISCPILOT01","DM","01-713-1179",NA,NA,"SAFETY","Safety Population Flag","Y","DERIVED","CLINICAL STUDY SPONSOR"
"CDISCPILOT01","DM","01-713-1209",NA,NA,"COMPLT16","Completers of Week 16 Population Flag","Y","DERIVED","CLINICAL STUDY SPONSOR"
"CDISCPILOT01","DM","01-713-1209",NA,NA,"COMPLT24","Completers of Week 24 Population Flag","Y","DERIVED","CLINICAL STUDY SPONSOR"
"CDISCPILOT01","DM","01-713-1209",NA,NA,"COMPLT8","Completers of Week 8 Population Flag","Y","DERIVED","CLINICAL STUDY SPONSOR"
"CDISCPILOT01","DM","01-713-1209",NA,NA,"EFFICACY","Efficacy Population Flag","Y","DERIVED","CLINICAL STUDY SPONSOR"
"CDISCPILOT01","DM","01-713-1209",NA,NA,"ITT","Intent to Treat Population Flag","Y","DERIVED","CLINICAL STUDY SPONSOR"
"CDISCPILOT01","DM","01-713-1209",NA,NA,"SAFETY","Safety Population Flag","Y","DERIVED","CLINICAL STUDY SPONSOR"
"CDISCPILOT01","DM","01-713-1256",NA,NA,"COMPLT16","Completers of Week 16 Population Flag","Y","DERIVED","CLINICAL STUDY SPONSOR"
"CDISCPILOT01","DM","01-713-1256",NA,NA,"COMPLT24","Completers of Week 24 Population Flag","Y","DERIVED","CLINICAL STUDY SPONSOR"
"CDISCPILOT01","DM","01-713-1256",NA,NA,"COMPLT8","Completers of Week 8 Population Flag","Y","DERIVED","CLINICAL STUDY SPONSOR"
"CDISCPILOT01","DM","01-713-1256",NA,NA,"EFFICACY","Efficacy Population Flag","Y","DERIVED","CLINICAL STUDY SPONSOR"
"CDISCPILOT01","DM","01-713-1256",NA,NA,"ITT","Intent to Treat Population Flag","Y","DERIVED","CLINICAL STUDY SPONSOR"
"CDISCPILOT01","DM","01-713-1256",NA,NA,"SAFETY","Safety Population Flag","Y","DERIVED","CLINICAL STUDY SPONSOR"
"CDISCPILOT01","DM","01-713-1269",NA,NA,"COMPLT16","Completers of Week 16 Population Flag","Y","DERIVED","CLINICAL STUDY SPONSOR"
"CDISCPILOT01","DM","01-713-1269",NA,NA,"COMPLT24","Completers of Week 24 Population Flag","Y","DERIVED","CLINICAL STUDY SPONSOR"
"CDISCPILOT01","DM","01-713-1269",NA,NA,"COMPLT8","Completers of Week 8 Population Flag","Y","DERIVED","CLINICAL STUDY SPONSOR"
"CDISCPILOT01","DM","01-713-1269",NA,NA,"EFFICACY","Efficacy Population Flag","Y","DERIVED","CLINICAL STUDY SPONSOR"
"CDISCPILOT01","DM","01-713-1269",NA,NA,"ITT","Intent to Treat Population Flag","Y","DERIVED","CLINICAL STUDY SPONSOR"
"CDISCPILOT01","DM","01-713-1269",NA,NA,"SAFETY","Safety Population Flag","Y","DERIVED","CLINICAL STUDY SPONSOR"
"CDISCPILOT01","DM","01-713-1448",NA,NA,"COMPLT16","Completers of Week 16 Population Flag","Y","DERIVED","CLINICAL STUDY SPONSOR"
"CDISCPILOT01","DM","01-713-1448",NA,NA,"COMPLT8","Completers of Week 8 Population Flag","Y","DERIVED","CLINICAL STUDY SPONSOR"
"CDISCPILOT01","DM","01-713-1448",NA,NA,"EFFICACY","Efficacy Population Flag","Y","DERIVED","CLINICAL STUDY SPONSOR"
"CDISCPILOT01","DM","01-713-1448",NA,NA,"ITT","Intent to Treat Population Flag","Y","DERIVED","CLINICAL STUDY SPONSOR"
"CDISCPILOT01","DM","01-713-1448",NA,NA,"SAFETY","Safety Population Flag","Y","DERIVED","CLINICAL STUDY SPONSOR"
"CDISCPILOT01","DM","01-714-1035",NA,NA,"COMPLT16","Completers of Week 16 Population Flag","Y","DERIVED","CLINICAL STUDY SPONSOR"
"CDISCPILOT01","DM","01-714-1035",NA,NA,"COMPLT24","Completers of Week 24 Population Flag","Y","DERIVED","CLINICAL STUDY SPONSOR"
"CDISCPILOT01","DM","01-714-1035",NA,NA,"COMPLT8","Completers of Week 8 Population Flag","Y","DERIVED","CLINICAL STUDY SPONSOR"
"CDISCPILOT01","DM","01-714-1035",NA,NA,"EFFICACY","Efficacy Population Flag","Y","DERIVED","CLINICAL STUDY SPONSOR"
"CDISCPILOT01","DM","01-714-1035",NA,NA,"ITT","Intent to Treat Population Flag","Y","DERIVED","CLINICAL STUDY SPONSOR"
"CDISCPILOT01","DM","01-714-1035",NA,NA,"SAFETY","Safety Population Flag","Y","DERIVED","CLINICAL STUDY SPONSOR"
"CDISCPILOT01","DM","01-714-1068",NA,NA,"COMPLT8","Completers of Week 8 Population Flag","Y","DERIVED","CLINICAL STUDY SPONSOR"
"CDISCPILOT01","DM","01-714-1068",NA,NA,"EFFICACY","Efficacy Population Flag","Y","DERIVED","CLINICAL STUDY SPONSOR"
"CDISCPILOT01","DM","01-714-1068",NA,NA,"ITT","Intent to Treat Population Flag","Y","DERIVED","CLINICAL STUDY SPONSOR"
"CDISCPILOT01","DM","01-714-1068",NA,NA,"SAFETY","Safety Population Flag","Y","DERIVED","CLINICAL STUDY SPONSOR"
"CDISCPILOT01","DM","01-714-1195",NA,NA,"COMPLT16","Completers of Week 16 Population Flag","Y","DERIVED","CLINICAL STUDY SPONSOR"
"CDISCPILOT01","DM","01-714-1195",NA,NA,"COMPLT24","Completers of Week 24 Population Flag","Y","DERIVED","CLINICAL STUDY SPONSOR"
"CDISCPILOT01","DM","01-714-1195",NA,NA,"COMPLT8","Completers of Week 8 Population Flag","Y","DERIVED","CLINICAL STUDY SPONSOR"
"CDISCPILOT01","DM","01-714-1195",NA,NA,"EFFICACY","Efficacy Population Flag","Y","DERIVED","CLINICAL STUDY SPONSOR"
"CDISCPILOT01","DM","01-714-1195",NA,NA,"ITT","Intent to Treat Population Flag","Y","DERIVED","CLINICAL STUDY SPONSOR"
"CDISCPILOT01","DM","01-714-1195",NA,NA,"SAFETY","Safety Population Flag","Y","DERIVED","CLINICAL STUDY SPONSOR"
"CDISCPILOT01","DM","01-714-1288",NA,NA,"COMPLT16","Completers of Week 16 Population Flag","Y","DERIVED","CLINICAL STUDY SPONSOR"
"CDISCPILOT01","DM","01-714-1288",NA,NA,"COMPLT24","Completers of Week 24 Population Flag","Y","DERIVED","CLINICAL STUDY SPONSOR"
"CDISCPILOT01","DM","01-714-1288",NA,NA,"COMPLT8","Completers of Week 8 Population Flag","Y","DERIVED","CLINICAL STUDY SPONSOR"
"CDISCPILOT01","DM","01-714-1288",NA,NA,"EFFICACY","Efficacy Population Flag","Y","DERIVED","CLINICAL STUDY SPONSOR"
"CDISCPILOT01","DM","01-714-1288",NA,NA,"ITT","Intent to Treat Population Flag","Y","DERIVED","CLINICAL STUDY SPONSOR"
"CDISCPILOT01","DM","01-714-1288",NA,NA,"SAFETY","Safety Population Flag","Y","DERIVED","CLINICAL STUDY SPONSOR"
"CDISCPILOT01","DM","01-714-1375",NA,NA,"COMPLT16","Completers of Week 16 Population Flag","Y","DERIVED","CLINICAL STUDY SPONSOR"
"CDISCPILOT01","DM","01-714-1375",NA,NA,"COMPLT24","Completers of Week 24 Population Flag","Y","DERIVED","CLINICAL STUDY SPONSOR"
"CDISCPILOT01","DM","01-714-1375",NA,NA,"COMPLT8","Completers of Week 8 Population Flag","Y","DERIVED","CLINICAL STUDY SPONSOR"
"CDISCPILOT01","DM","01-714-1375",NA,NA,"EFFICACY","Efficacy Population Flag","Y","DERIVED","CLINICAL STUDY SPONSOR"
"CDISCPILOT01","DM","01-714-1375",NA,NA,"ITT","Intent to Treat Population Flag","Y","DERIVED","CLINICAL STUDY SPONSOR"
"CDISCPILOT01","DM","01-714-1375",NA,NA,"SAFETY","Safety Population Flag","Y","DERIVED","CLINICAL STUDY SPONSOR"
"CDISCPILOT01","DM","01-714-1425",NA,NA,"EFFICACY","Efficacy Population Flag","Y","DERIVED","CLINICAL STUDY SPONSOR"
"CDISCPILOT01","DM","01-714-1425",NA,NA,"ITT","Intent to Treat Population Flag","Y","DERIVED","CLINICAL STUDY SPONSOR"
"CDISCPILOT01","DM","01-714-1425",NA,NA,"SAFETY","Safety Population Flag","Y","DERIVED","CLINICAL STUDY SPONSOR"
"CDISCPILOT01","DM","01-715-1085",NA,NA,"COMPLT16","Completers of Week 16 Population Flag","Y","DERIVED","CLINICAL STUDY SPONSOR"
"CDISCPILOT01","DM","01-715-1085",NA,NA,"COMPLT24","Completers of Week 24 Population Flag","Y","DERIVED","CLINICAL STUDY SPONSOR"
"CDISCPILOT01","DM","01-715-1085",NA,NA,"COMPLT8","Completers of Week 8 Population Flag","Y","DERIVED","CLINICAL STUDY SPONSOR"
"CDISCPILOT01","DM","01-715-1085",NA,NA,"EFFICACY","Efficacy Population Flag","Y","DERIVED","CLINICAL STUDY SPONSOR"
"CDISCPILOT01","DM","01-715-1085",NA,NA,"ITT","Intent to Treat Population Flag","Y","DERIVED","CLINICAL STUDY SPONSOR"
"CDISCPILOT01","DM","01-715-1085",NA,NA,"SAFETY","Safety Population Flag","Y","DERIVED","CLINICAL STUDY SPONSOR"
"CDISCPILOT01","DM","01-715-1107",NA,NA,"COMPLT8","Completers of Week 8 Population Flag","Y","DERIVED","CLINICAL STUDY SPONSOR"
"CDISCPILOT01","DM","01-715-1107",NA,NA,"EFFICACY","Efficacy Population Flag","Y","DERIVED","CLINICAL STUDY SPONSOR"
"CDISCPILOT01","DM","01-715-1107",NA,NA,"ITT","Intent to Treat Population Flag","Y","DERIVED","CLINICAL STUDY SPONSOR"
"CDISCPILOT01","DM","01-715-1107",NA,NA,"SAFETY","Safety Population Flag","Y","DERIVED","CLINICAL STUDY SPONSOR"
"CDISCPILOT01","DM","01-715-1155",NA,NA,"ITT","Intent to Treat Population Flag","Y","DERIVED","CLINICAL STUDY SPONSOR"
"CDISCPILOT01","DM","01-715-1155",NA,NA,"SAFETY","Safety Population Flag","Y","DERIVED","CLINICAL STUDY SPONSOR"
"CDISCPILOT01","DM","01-715-1207",NA,NA,"COMPLT16","Completers of Week 16 Population Flag","Y","DERIVED","CLINICAL STUDY SPONSOR"
"CDISCPILOT01","DM","01-715-1207",NA,NA,"COMPLT24","Completers of Week 24 Population Flag","Y","DERIVED","CLINICAL STUDY SPONSOR"
"CDISCPILOT01","DM","01-715-1207",NA,NA,"COMPLT8","Completers of Week 8 Population Flag","Y","DERIVED","CLINICAL STUDY SPONSOR"
"CDISCPILOT01","DM","01-715-1207",NA,NA,"EFFICACY","Efficacy Population Flag","Y","DERIVED","CLINICAL STUDY SPONSOR"
"CDISCPILOT01","DM","01-715-1207",NA,NA,"ITT","Intent to Treat Population Flag","Y","DERIVED","CLINICAL STUDY SPONSOR"
"CDISCPILOT01","DM","01-715-1207",NA,NA,"SAFETY","Safety Population Flag","Y","DERIVED","CLINICAL STUDY SPONSOR"
"CDISCPILOT01","DM","01-715-1319",NA,NA,"EFFICACY","Efficacy Population Flag","Y","DERIVED","CLINICAL STUDY SPONSOR"
"CDISCPILOT01","DM","01-715-1319",NA,NA,"ITT","Intent to Treat Population Flag","Y","DERIVED","CLINICAL STUDY SPONSOR"
"CDISCPILOT01","DM","01-715-1319",NA,NA,"SAFETY","Safety Population Flag","Y","DERIVED","CLINICAL STUDY SPONSOR"
"CDISCPILOT01","DM","01-715-1321",NA,NA,"COMPLT8","Completers of Week 8 Population Flag","Y","DERIVED","CLINICAL STUDY SPONSOR"
"CDISCPILOT01","DM","01-715-1321",NA,NA,"EFFICACY","Efficacy Population Flag","Y","DERIVED","CLINICAL STUDY SPONSOR"
"CDISCPILOT01","DM","01-715-1321",NA,NA,"ITT","Intent to Treat Population Flag","Y","DERIVED","CLINICAL STUDY SPONSOR"
"CDISCPILOT01","DM","01-715-1321",NA,NA,"SAFETY","Safety Population Flag","Y","DERIVED","CLINICAL STUDY SPONSOR"
"CDISCPILOT01","DM","01-715-1397",NA,NA,"COMPLT16","Completers of Week 16 Population Flag","Y","DERIVED","CLINICAL STUDY SPONSOR"
"CDISCPILOT01","DM","01-715-1397",NA,NA,"COMPLT24","Completers of Week 24 Population Flag","Y","DERIVED","CLINICAL STUDY SPONSOR"
"CDISCPILOT01","DM","01-715-1397",NA,NA,"COMPLT8","Completers of Week 8 Population Flag","Y","DERIVED","CLINICAL STUDY SPONSOR"
"CDISCPILOT01","DM","01-715-1397",NA,NA,"EFFICACY","Efficacy Population Flag","Y","DERIVED","CLINICAL STUDY SPONSOR"
"CDISCPILOT01","DM","01-715-1397",NA,NA,"ITT","Intent to Treat Population Flag","Y","DERIVED","CLINICAL STUDY SPONSOR"
"CDISCPILOT01","DM","01-715-1397",NA,NA,"SAFETY","Safety Population Flag","Y","DERIVED","CLINICAL STUDY SPONSOR"
"CDISCPILOT01","DM","01-715-1405",NA,NA,"EFFICACY","Efficacy Population Flag","Y","DERIVED","CLINICAL STUDY SPONSOR"
"CDISCPILOT01","DM","01-715-1405",NA,NA,"ITT","Intent to Treat Population Flag","Y","DERIVED","CLINICAL STUDY SPONSOR"
"CDISCPILOT01","DM","01-715-1405",NA,NA,"SAFETY","Safety Population Flag","Y","DERIVED","CLINICAL STUDY SPONSOR"
"CDISCPILOT01","DM","01-716-1024",NA,NA,"COMPLT16","Completers of Week 16 Population Flag","Y","DERIVED","CLINICAL STUDY SPONSOR"
"CDISCPILOT01","DM","01-716-1024",NA,NA,"COMPLT24","Completers of Week 24 Population Flag","Y","DERIVED","CLINICAL STUDY SPONSOR"
"CDISCPILOT01","DM","01-716-1024",NA,NA,"COMPLT8","Completers of Week 8 Population Flag","Y","DERIVED","CLINICAL STUDY SPONSOR"
"CDISCPILOT01","DM","01-716-1024",NA,NA,"EFFICACY","Efficacy Population Flag","Y","DERIVED","CLINICAL STUDY SPONSOR"
"CDISCPILOT01","DM","01-716-1024",NA,NA,"ITT","Intent to Treat Population Flag","Y","DERIVED","CLINICAL STUDY SPONSOR"
"CDISCPILOT01","DM","01-716-1024",NA,NA,"SAFETY","Safety Population Flag","Y","DERIVED","CLINICAL STUDY SPONSOR"
"CDISCPILOT01","DM","01-716-1026",NA,NA,"COMPLT16","Completers of Week 16 Population Flag","Y","DERIVED","CLINICAL STUDY SPONSOR"
"CDISCPILOT01","DM","01-716-1026",NA,NA,"COMPLT24","Completers of Week 24 Population Flag","Y","DERIVED","CLINICAL STUDY SPONSOR"
"CDISCPILOT01","DM","01-716-1026",NA,NA,"COMPLT8","Completers of Week 8 Population Flag","Y","DERIVED","CLINICAL STUDY SPONSOR"
"CDISCPILOT01","DM","01-716-1026",NA,NA,"EFFICACY","Efficacy Population Flag","Y","DERIVED","CLINICAL STUDY SPONSOR"
"CDISCPILOT01","DM","01-716-1026",NA,NA,"ITT","Intent to Treat Population Flag","Y","DERIVED","CLINICAL STUDY SPONSOR"
"CDISCPILOT01","DM","01-716-1026",NA,NA,"SAFETY","Safety Population Flag","Y","DERIVED","CLINICAL STUDY SPONSOR"
"CDISCPILOT01","DM","01-716-1030",NA,NA,"EFFICACY","Efficacy Population Flag","Y","DERIVED","CLINICAL STUDY SPONSOR"
"CDISCPILOT01","DM","01-716-1030",NA,NA,"ITT","Intent to Treat Population Flag","Y","DERIVED","CLINICAL STUDY SPONSOR"
"CDISCPILOT01","DM","01-716-1030",NA,NA,"SAFETY","Safety Population Flag","Y","DERIVED","CLINICAL STUDY SPONSOR"
"CDISCPILOT01","DM","01-716-1044",NA,NA,"COMPLT16","Completers of Week 16 Population Flag","Y","DERIVED","CLINICAL STUDY SPONSOR"
"CDISCPILOT01","DM","01-716-1044",NA,NA,"COMPLT24","Completers of Week 24 Population Flag","Y","DERIVED","CLINICAL STUDY SPONSOR"
"CDISCPILOT01","DM","01-716-1044",NA,NA,"COMPLT8","Completers of Week 8 Population Flag","Y","DERIVED","CLINICAL STUDY SPONSOR"
"CDISCPILOT01","DM","01-716-1044",NA,NA,"EFFICACY","Efficacy Population Flag","Y","DERIVED","CLINICAL STUDY SPONSOR"
"CDISCPILOT01","DM","01-716-1044",NA,NA,"ITT","Intent to Treat Population Flag","Y","DERIVED","CLINICAL STUDY SPONSOR"
"CDISCPILOT01","DM","01-716-1044",NA,NA,"SAFETY","Safety Population Flag","Y","DERIVED","CLINICAL STUDY SPONSOR"
"CDISCPILOT01","DM","01-716-1063",NA,NA,"COMPLT16","Completers of Week 16 Population Flag","Y","DERIVED","CLINICAL STUDY SPONSOR"
"CDISCPILOT01","DM","01-716-1063",NA,NA,"COMPLT8","Completers of Week 8 Population Flag","Y","DERIVED","CLINICAL STUDY SPONSOR"
"CDISCPILOT01","DM","01-716-1063",NA,NA,"EFFICACY","Efficacy Population Flag","Y","DERIVED","CLINICAL STUDY SPONSOR"
"CDISCPILOT01","DM","01-716-1063",NA,NA,"ITT","Intent to Treat Population Flag","Y","DERIVED","CLINICAL STUDY SPONSOR"
"CDISCPILOT01","DM","01-716-1063",NA,NA,"SAFETY","Safety Population Flag","Y","DERIVED","CLINICAL STUDY SPONSOR"
"CDISCPILOT01","DM","01-716-1071",NA,NA,"COMPLT8","Completers of Week 8 Population Flag","Y","DERIVED","CLINICAL STUDY SPONSOR"
"CDISCPILOT01","DM","01-716-1071",NA,NA,"EFFICACY","Efficacy Population Flag","Y","DERIVED","CLINICAL STUDY SPONSOR"
"CDISCPILOT01","DM","01-716-1071",NA,NA,"ITT","Intent to Treat Population Flag","Y","DERIVED","CLINICAL STUDY SPONSOR"
"CDISCPILOT01","DM","01-716-1071",NA,NA,"SAFETY","Safety Population Flag","Y","DERIVED","CLINICAL STUDY SPONSOR"
"CDISCPILOT01","DM","01-716-1094",NA,NA,"EFFICACY","Efficacy Population Flag","Y","DERIVED","CLINICAL STUDY SPONSOR"
"CDISCPILOT01","DM","01-716-1094",NA,NA,"ITT","Intent to Treat Population Flag","Y","DERIVED","CLINICAL STUDY SPONSOR"
"CDISCPILOT01","DM","01-716-1094",NA,NA,"SAFETY","Safety Population Flag","Y","DERIVED","CLINICAL STUDY SPONSOR"
"CDISCPILOT01","DM","01-716-1103",NA,NA,"COMPLT16","Completers of Week 16 Population Flag","Y","DERIVED","CLINICAL STUDY SPONSOR"
"CDISCPILOT01","DM","01-716-1103",NA,NA,"COMPLT24","Completers of Week 24 Population Flag","Y","DERIVED","CLINICAL STUDY SPONSOR"
"CDISCPILOT01","DM","01-716-1103",NA,NA,"COMPLT8","Completers of Week 8 Population Flag","Y","DERIVED","CLINICAL STUDY SPONSOR"
"CDISCPILOT01","DM","01-716-1103",NA,NA,"EFFICACY","Efficacy Population Flag","Y","DERIVED","CLINICAL STUDY SPONSOR"
"CDISCPILOT01","DM","01-716-1103",NA,NA,"ITT","Intent to Treat Population Flag","Y","DERIVED","CLINICAL STUDY SPONSOR"
"CDISCPILOT01","DM","01-716-1103",NA,NA,"SAFETY","Safety Population Flag","Y","DERIVED","CLINICAL STUDY SPONSOR"
"CDISCPILOT01","DM","01-716-1108",NA,NA,"COMPLT16","Completers of Week 16 Population Flag","Y","DERIVED","CLINICAL STUDY SPONSOR"
"CDISCPILOT01","DM","01-716-1108",NA,NA,"COMPLT24","Completers of Week 24 Population Flag","Y","DERIVED","CLINICAL STUDY SPONSOR"
"CDISCPILOT01","DM","01-716-1108",NA,NA,"COMPLT8","Completers of Week 8 Population Flag","Y","DERIVED","CLINICAL STUDY SPONSOR"
"CDISCPILOT01","DM","01-716-1108",NA,NA,"EFFICACY","Efficacy Population Flag","Y","DERIVED","CLINICAL STUDY SPONSOR"
"CDISCPILOT01","DM","01-716-1108",NA,NA,"ITT","Intent to Treat Population Flag","Y","DERIVED","CLINICAL STUDY SPONSOR"
"CDISCPILOT01","DM","01-716-1108",NA,NA,"SAFETY","Safety Population Flag","Y","DERIVED","CLINICAL STUDY SPONSOR"
"CDISCPILOT01","DM","01-716-1151",NA,NA,"COMPLT16","Completers of Week 16 Population Flag","Y","DERIVED","CLINICAL STUDY SPONSOR"
"CDISCPILOT01","DM","01-716-1151",NA,NA,"COMPLT8","Completers of Week 8 Population Flag","Y","DERIVED","CLINICAL STUDY SPONSOR"
"CDISCPILOT01","DM","01-716-1151",NA,NA,"EFFICACY","Efficacy Population Flag","Y","DERIVED","CLINICAL STUDY SPONSOR"
"CDISCPILOT01","DM","01-716-1151",NA,NA,"ITT","Intent to Treat Population Flag","Y","DERIVED","CLINICAL STUDY SPONSOR"
"CDISCPILOT01","DM","01-716-1151",NA,NA,"SAFETY","Safety Population Flag","Y","DERIVED","CLINICAL STUDY SPONSOR"
"CDISCPILOT01","DM","01-716-1157",NA,NA,"COMPLT16","Completers of Week 16 Population Flag","Y","DERIVED","CLINICAL STUDY SPONSOR"
"CDISCPILOT01","DM","01-716-1157",NA,NA,"COMPLT24","Completers of Week 24 Population Flag","Y","DERIVED","CLINICAL STUDY SPONSOR"
"CDISCPILOT01","DM","01-716-1157",NA,NA,"COMPLT8","Completers of Week 8 Population Flag","Y","DERIVED","CLINICAL STUDY SPONSOR"
"CDISCPILOT01","DM","01-716-1157",NA,NA,"EFFICACY","Efficacy Population Flag","Y","DERIVED","CLINICAL STUDY SPONSOR"
"CDISCPILOT01","DM","01-716-1157",NA,NA,"ITT","Intent to Treat Population Flag","Y","DERIVED","CLINICAL STUDY SPONSOR"
"CDISCPILOT01","DM","01-716-1157",NA,NA,"SAFETY","Safety Population Flag","Y","DERIVED","CLINICAL STUDY SPONSOR"
"CDISCPILOT01","DM","01-716-1160",NA,NA,"COMPLT16","Completers of Week 16 Population Flag","Y","DERIVED","CLINICAL STUDY SPONSOR"
"CDISCPILOT01","DM","01-716-1160",NA,NA,"COMPLT24","Completers of Week 24 Population Flag","Y","DERIVED","CLINICAL STUDY SPONSOR"
"CDISCPILOT01","DM","01-716-1160",NA,NA,"COMPLT8","Completers of Week 8 Population Flag","Y","DERIVED","CLINICAL STUDY SPONSOR"
"CDISCPILOT01","DM","01-716-1160",NA,NA,"EFFICACY","Efficacy Population Flag","Y","DERIVED","CLINICAL STUDY SPONSOR"
"CDISCPILOT01","DM","01-716-1160",NA,NA,"ITT","Intent to Treat Population Flag","Y","DERIVED","CLINICAL STUDY SPONSOR"
"CDISCPILOT01","DM","01-716-1160",NA,NA,"SAFETY","Safety Population Flag","Y","DERIVED","CLINICAL STUDY SPONSOR"
"CDISCPILOT01","DM","01-716-1167",NA,NA,"COMPLT16","Completers of Week 16 Population Flag","Y","DERIVED","CLINICAL STUDY SPONSOR"
"CDISCPILOT01","DM","01-716-1167",NA,NA,"COMPLT24","Completers of Week 24 Population Flag","Y","DERIVED","CLINICAL STUDY SPONSOR"
"CDISCPILOT01","DM","01-716-1167",NA,NA,"COMPLT8","Completers of Week 8 Population Flag","Y","DERIVED","CLINICAL STUDY SPONSOR"
"CDISCPILOT01","DM","01-716-1167",NA,NA,"EFFICACY","Efficacy Population Flag","Y","DERIVED","CLINICAL STUDY SPONSOR"
"CDISCPILOT01","DM","01-716-1167",NA,NA,"ITT","Intent to Treat Population Flag","Y","DERIVED","CLINICAL STUDY SPONSOR"
"CDISCPILOT01","DM","01-716-1167",NA,NA,"SAFETY","Safety Population Flag","Y","DERIVED","CLINICAL STUDY SPONSOR"
"CDISCPILOT01","DM","01-716-1177",NA,NA,"COMPLT16","Completers of Week 16 Population Flag","Y","DERIVED","CLINICAL STUDY SPONSOR"
"CDISCPILOT01","DM","01-716-1177",NA,NA,"COMPLT24","Completers of Week 24 Population Flag","Y","DERIVED","CLINICAL STUDY SPONSOR"
"CDISCPILOT01","DM","01-716-1177",NA,NA,"COMPLT8","Completers of Week 8 Population Flag","Y","DERIVED","CLINICAL STUDY SPONSOR"
"CDISCPILOT01","DM","01-716-1177",NA,NA,"EFFICACY","Efficacy Population Flag","Y","DERIVED","CLINICAL STUDY SPONSOR"
"CDISCPILOT01","DM","01-716-1177",NA,NA,"ITT","Intent to Treat Population Flag","Y","DERIVED","CLINICAL STUDY SPONSOR"
"CDISCPILOT01","DM","01-716-1177",NA,NA,"SAFETY","Safety Population Flag","Y","DERIVED","CLINICAL STUDY SPONSOR"
"CDISCPILOT01","DM","01-716-1189",NA,NA,"COMPLT16","Completers of Week 16 Population Flag","Y","DERIVED","CLINICAL STUDY SPONSOR"
"CDISCPILOT01","DM","01-716-1189",NA,NA,"COMPLT8","Completers of Week 8 Population Flag","Y","DERIVED","CLINICAL STUDY SPONSOR"
"CDISCPILOT01","DM","01-716-1189",NA,NA,"EFFICACY","Efficacy Population Flag","Y","DERIVED","CLINICAL STUDY SPONSOR"
"CDISCPILOT01","DM","01-716-1189",NA,NA,"ITT","Intent to Treat Population Flag","Y","DERIVED","CLINICAL STUDY SPONSOR"
"CDISCPILOT01","DM","01-716-1189",NA,NA,"SAFETY","Safety Population Flag","Y","DERIVED","CLINICAL STUDY SPONSOR"
"CDISCPILOT01","DM","01-716-1229",NA,NA,"EFFICACY","Efficacy Population Flag","Y","DERIVED","CLINICAL STUDY SPONSOR"
"CDISCPILOT01","DM","01-716-1229",NA,NA,"ITT","Intent to Treat Population Flag","Y","DERIVED","CLINICAL STUDY SPONSOR"
"CDISCPILOT01","DM","01-716-1229",NA,NA,"SAFETY","Safety Population Flag","Y","DERIVED","CLINICAL STUDY SPONSOR"
"CDISCPILOT01","DM","01-716-1298",NA,NA,"COMPLT8","Completers of Week 8 Population Flag","Y","DERIVED","CLINICAL STUDY SPONSOR"
"CDISCPILOT01","DM","01-716-1298",NA,NA,"EFFICACY","Efficacy Population Flag","Y","DERIVED","CLINICAL STUDY SPONSOR"
"CDISCPILOT01","DM","01-716-1298",NA,NA,"ITT","Intent to Treat Population Flag","Y","DERIVED","CLINICAL STUDY SPONSOR"
"CDISCPILOT01","DM","01-716-1298",NA,NA,"SAFETY","Safety Population Flag","Y","DERIVED","CLINICAL STUDY SPONSOR"
"CDISCPILOT01","DM","01-716-1308",NA,NA,"EFFICACY","Efficacy Population Flag","Y","DERIVED","CLINICAL STUDY SPONSOR"
"CDISCPILOT01","DM","01-716-1308",NA,NA,"ITT","Intent to Treat Population Flag","Y","DERIVED","CLINICAL STUDY SPONSOR"
"CDISCPILOT01","DM","01-716-1308",NA,NA,"SAFETY","Safety Population Flag","Y","DERIVED","CLINICAL STUDY SPONSOR"
"CDISCPILOT01","DM","01-716-1311",NA,NA,"COMPLT16","Completers of Week 16 Population Flag","Y","DERIVED","CLINICAL STUDY SPONSOR"
"CDISCPILOT01","DM","01-716-1311",NA,NA,"COMPLT8","Completers of Week 8 Population Flag","Y","DERIVED","CLINICAL STUDY SPONSOR"
"CDISCPILOT01","DM","01-716-1311",NA,NA,"EFFICACY","Efficacy Population Flag","Y","DERIVED","CLINICAL STUDY SPONSOR"
"CDISCPILOT01","DM","01-716-1311",NA,NA,"ITT","Intent to Treat Population Flag","Y","DERIVED","CLINICAL STUDY SPONSOR"
"CDISCPILOT01","DM","01-716-1311",NA,NA,"SAFETY","Safety Population Flag","Y","DERIVED","CLINICAL STUDY SPONSOR"
"CDISCPILOT01","DM","01-716-1364",NA,NA,"COMPLT16","Completers of Week 16 Population Flag","Y","DERIVED","CLINICAL STUDY SPONSOR"
"CDISCPILOT01","DM","01-716-1364",NA,NA,"COMPLT24","Completers of Week 24 Population Flag","Y","DERIVED","CLINICAL STUDY SPONSOR"
"CDISCPILOT01","DM","01-716-1364",NA,NA,"COMPLT8","Completers of Week 8 Population Flag","Y","DERIVED","CLINICAL STUDY SPONSOR"
"CDISCPILOT01","DM","01-716-1364",NA,NA,"EFFICACY","Efficacy Population Flag","Y","DERIVED","CLINICAL STUDY SPONSOR"
"CDISCPILOT01","DM","01-716-1364",NA,NA,"ITT","Intent to Treat Population Flag","Y","DERIVED","CLINICAL STUDY SPONSOR"
"CDISCPILOT01","DM","01-716-1364",NA,NA,"SAFETY","Safety Population Flag","Y","DERIVED","CLINICAL STUDY SPONSOR"
"CDISCPILOT01","DM","01-716-1373",NA,NA,"COMPLT8","Completers of Week 8 Population Flag","Y","DERIVED","CLINICAL STUDY SPONSOR"
"CDISCPILOT01","DM","01-716-1373",NA,NA,"EFFICACY","Efficacy Population Flag","Y","DERIVED","CLINICAL STUDY SPONSOR"
"CDISCPILOT01","DM","01-716-1373",NA,NA,"ITT","Intent to Treat Population Flag","Y","DERIVED","CLINICAL STUDY SPONSOR"
"CDISCPILOT01","DM","01-716-1373",NA,NA,"SAFETY","Safety Population Flag","Y","DERIVED","CLINICAL STUDY SPONSOR"
"CDISCPILOT01","DM","01-716-1418",NA,NA,"COMPLT16","Completers of Week 16 Population Flag","Y","DERIVED","CLINICAL STUDY SPONSOR"
"CDISCPILOT01","DM","01-716-1418",NA,NA,"COMPLT24","Completers of Week 24 Population Flag","Y","DERIVED","CLINICAL STUDY SPONSOR"
"CDISCPILOT01","DM","01-716-1418",NA,NA,"COMPLT8","Completers of Week 8 Population Flag","Y","DERIVED","CLINICAL STUDY SPONSOR"
"CDISCPILOT01","DM","01-716-1418",NA,NA,"EFFICACY","Efficacy Population Flag","Y","DERIVED","CLINICAL STUDY SPONSOR"
"CDISCPILOT01","DM","01-716-1418",NA,NA,"ITT","Intent to Treat Population Flag","Y","DERIVED","CLINICAL STUDY SPONSOR"
"CDISCPILOT01","DM","01-716-1418",NA,NA,"SAFETY","Safety Population Flag","Y","DERIVED","CLINICAL STUDY SPONSOR"
"CDISCPILOT01","DM","01-716-1441",NA,NA,"COMPLT16","Completers of Week 16 Population Flag","Y","DERIVED","CLINICAL STUDY SPONSOR"
"CDISCPILOT01","DM","01-716-1441",NA,NA,"COMPLT24","Completers of Week 24 Population Flag","Y","DERIVED","CLINICAL STUDY SPONSOR"
"CDISCPILOT01","DM","01-716-1441",NA,NA,"COMPLT8","Completers of Week 8 Population Flag","Y","DERIVED","CLINICAL STUDY SPONSOR"
"CDISCPILOT01","DM","01-716-1441",NA,NA,"EFFICACY","Efficacy Population Flag","Y","DERIVED","CLINICAL STUDY SPONSOR"
"CDISCPILOT01","DM","01-716-1441",NA,NA,"ITT","Intent to Treat Population Flag","Y","DERIVED","CLINICAL STUDY SPONSOR"
"CDISCPILOT01","DM","01-716-1441",NA,NA,"SAFETY","Safety Population Flag","Y","DERIVED","CLINICAL STUDY SPONSOR"
"CDISCPILOT01","DM","01-716-1447",NA,NA,"COMPLT16","Completers of Week 16 Population Flag","Y","DERIVED","CLINICAL STUDY SPONSOR"
"CDISCPILOT01","DM","01-716-1447",NA,NA,"COMPLT24","Completers of Week 24 Population Flag","Y","DERIVED","CLINICAL STUDY SPONSOR"
"CDISCPILOT01","DM","01-716-1447",NA,NA,"COMPLT8","Completers of Week 8 Population Flag","Y","DERIVED","CLINICAL STUDY SPONSOR"
"CDISCPILOT01","DM","01-716-1447",NA,NA,"EFFICACY","Efficacy Population Flag","Y","DERIVED","CLINICAL STUDY SPONSOR"
"CDISCPILOT01","DM","01-716-1447",NA,NA,"ITT","Intent to Treat Population Flag","Y","DERIVED","CLINICAL STUDY SPONSOR"
"CDISCPILOT01","DM","01-716-1447",NA,NA,"SAFETY","Safety Population Flag","Y","DERIVED","CLINICAL STUDY SPONSOR"
"CDISCPILOT01","DM","01-717-1004",NA,NA,"COMPLT16","Completers of Week 16 Population Flag","Y","DERIVED","CLINICAL STUDY SPONSOR"
"CDISCPILOT01","DM","01-717-1004",NA,NA,"COMPLT24","Completers of Week 24 Population Flag","Y","DERIVED","CLINICAL STUDY SPONSOR"
"CDISCPILOT01","DM","01-717-1004",NA,NA,"COMPLT8","Completers of Week 8 Population Flag","Y","DERIVED","CLINICAL STUDY SPONSOR"
"CDISCPILOT01","DM","01-717-1004",NA,NA,"EFFICACY","Efficacy Population Flag","Y","DERIVED","CLINICAL STUDY SPONSOR"
"CDISCPILOT01","DM","01-717-1004",NA,NA,"ITT","Intent to Treat Population Flag","Y","DERIVED","CLINICAL STUDY SPONSOR"
"CDISCPILOT01","DM","01-717-1004",NA,NA,"SAFETY","Safety Population Flag","Y","DERIVED","CLINICAL STUDY SPONSOR"
"CDISCPILOT01","DM","01-717-1109",NA,NA,"COMPLT16","Completers of Week 16 Population Flag","Y","DERIVED","CLINICAL STUDY SPONSOR"
"CDISCPILOT01","DM","01-717-1109",NA,NA,"COMPLT24","Completers of Week 24 Population Flag","Y","DERIVED","CLINICAL STUDY SPONSOR"
"CDISCPILOT01","DM","01-717-1109",NA,NA,"COMPLT8","Completers of Week 8 Population Flag","Y","DERIVED","CLINICAL STUDY SPONSOR"
"CDISCPILOT01","DM","01-717-1109",NA,NA,"EFFICACY","Efficacy Population Flag","Y","DERIVED","CLINICAL STUDY SPONSOR"
"CDISCPILOT01","DM","01-717-1109",NA,NA,"ITT","Intent to Treat Population Flag","Y","DERIVED","CLINICAL STUDY SPONSOR"
"CDISCPILOT01","DM","01-717-1109",NA,NA,"SAFETY","Safety Population Flag","Y","DERIVED","CLINICAL STUDY SPONSOR"
"CDISCPILOT01","DM","01-717-1174",NA,NA,"COMPLT16","Completers of Week 16 Population Flag","Y","DERIVED","CLINICAL STUDY SPONSOR"
"CDISCPILOT01","DM","01-717-1174",NA,NA,"COMPLT24","Completers of Week 24 Population Flag","Y","DERIVED","CLINICAL STUDY SPONSOR"
"CDISCPILOT01","DM","01-717-1174",NA,NA,"COMPLT8","Completers of Week 8 Population Flag","Y","DERIVED","CLINICAL STUDY SPONSOR"
"CDISCPILOT01","DM","01-717-1174",NA,NA,"EFFICACY","Efficacy Population Flag","Y","DERIVED","CLINICAL STUDY SPONSOR"
"CDISCPILOT01","DM","01-717-1174",NA,NA,"ITT","Intent to Treat Population Flag","Y","DERIVED","CLINICAL STUDY SPONSOR"
"CDISCPILOT01","DM","01-717-1174",NA,NA,"SAFETY","Safety Population Flag","Y","DERIVED","CLINICAL STUDY SPONSOR"
"CDISCPILOT01","DM","01-717-1201",NA,NA,"COMPLT8","Completers of Week 8 Population Flag","Y","DERIVED","CLINICAL STUDY SPONSOR"
"CDISCPILOT01","DM","01-717-1201",NA,NA,"EFFICACY","Efficacy Population Flag","Y","DERIVED","CLINICAL STUDY SPONSOR"
"CDISCPILOT01","DM","01-717-1201",NA,NA,"ITT","Intent to Treat Population Flag","Y","DERIVED","CLINICAL STUDY SPONSOR"
"CDISCPILOT01","DM","01-717-1201",NA,NA,"SAFETY","Safety Population Flag","Y","DERIVED","CLINICAL STUDY SPONSOR"
"CDISCPILOT01","DM","01-717-1344",NA,NA,"COMPLT8","Completers of Week 8 Population Flag","Y","DERIVED","CLINICAL STUDY SPONSOR"
"CDISCPILOT01","DM","01-717-1344",NA,NA,"EFFICACY","Efficacy Population Flag","Y","DERIVED","CLINICAL STUDY SPONSOR"
"CDISCPILOT01","DM","01-717-1344",NA,NA,"ITT","Intent to Treat Population Flag","Y","DERIVED","CLINICAL STUDY SPONSOR"
"CDISCPILOT01","DM","01-717-1344",NA,NA,"SAFETY","Safety Population Flag","Y","DERIVED","CLINICAL STUDY SPONSOR"
"CDISCPILOT01","DM","01-717-1357",NA,NA,"COMPLT16","Completers of Week 16 Population Flag","Y","DERIVED","CLINICAL STUDY SPONSOR"
"CDISCPILOT01","DM","01-717-1357",NA,NA,"COMPLT24","Completers of Week 24 Population Flag","Y","DERIVED","CLINICAL STUDY SPONSOR"
"CDISCPILOT01","DM","01-717-1357",NA,NA,"COMPLT8","Completers of Week 8 Population Flag","Y","DERIVED","CLINICAL STUDY SPONSOR"
"CDISCPILOT01","DM","01-717-1357",NA,NA,"EFFICACY","Efficacy Population Flag","Y","DERIVED","CLINICAL STUDY SPONSOR"
"CDISCPILOT01","DM","01-717-1357",NA,NA,"ITT","Intent to Treat Population Flag","Y","DERIVED","CLINICAL STUDY SPONSOR"
"CDISCPILOT01","DM","01-717-1357",NA,NA,"SAFETY","Safety Population Flag","Y","DERIVED","CLINICAL STUDY SPONSOR"
"CDISCPILOT01","DM","01-717-1446",NA,NA,"COMPLT16","Completers of Week 16 Population Flag","Y","DERIVED","CLINICAL STUDY SPONSOR"
"CDISCPILOT01","DM","01-717-1446",NA,NA,"COMPLT24","Completers of Week 24 Population Flag","Y","DERIVED","CLINICAL STUDY SPONSOR"
"CDISCPILOT01","DM","01-717-1446",NA,NA,"COMPLT8","Completers of Week 8 Population Flag","Y","DERIVED","CLINICAL STUDY SPONSOR"
"CDISCPILOT01","DM","01-717-1446",NA,NA,"EFFICACY","Efficacy Population Flag","Y","DERIVED","CLINICAL STUDY SPONSOR"
"CDISCPILOT01","DM","01-717-1446",NA,NA,"ITT","Intent to Treat Population Flag","Y","DERIVED","CLINICAL STUDY SPONSOR"
"CDISCPILOT01","DM","01-717-1446",NA,NA,"SAFETY","Safety Population Flag","Y","DERIVED","CLINICAL STUDY SPONSOR"
"CDISCPILOT01","DM","01-718-1066",NA,NA,"EFFICACY","Efficacy Population Flag","Y","DERIVED","CLINICAL STUDY SPONSOR"
"CDISCPILOT01","DM","01-718-1066",NA,NA,"ITT","Intent to Treat Population Flag","Y","DERIVED","CLINICAL STUDY SPONSOR"
"CDISCPILOT01","DM","01-718-1066",NA,NA,"SAFETY","Safety Population Flag","Y","DERIVED","CLINICAL STUDY SPONSOR"
"CDISCPILOT01","DM","01-718-1079",NA,NA,"EFFICACY","Efficacy Population Flag","Y","DERIVED","CLINICAL STUDY SPONSOR"
"CDISCPILOT01","DM","01-718-1079",NA,NA,"ITT","Intent to Treat Population Flag","Y","DERIVED","CLINICAL STUDY SPONSOR"
"CDISCPILOT01","DM","01-718-1079",NA,NA,"SAFETY","Safety Population Flag","Y","DERIVED","CLINICAL STUDY SPONSOR"
"CDISCPILOT01","DM","01-718-1101",NA,NA,"COMPLT16","Completers of Week 16 Population Flag","Y","DERIVED","CLINICAL STUDY SPONSOR"
"CDISCPILOT01","DM","01-718-1101",NA,NA,"COMPLT24","Completers of Week 24 Population Flag","Y","DERIVED","CLINICAL STUDY SPONSOR"
"CDISCPILOT01","DM","01-718-1101",NA,NA,"COMPLT8","Completers of Week 8 Population Flag","Y","DERIVED","CLINICAL STUDY SPONSOR"
"CDISCPILOT01","DM","01-718-1101",NA,NA,"EFFICACY","Efficacy Population Flag","Y","DERIVED","CLINICAL STUDY SPONSOR"
"CDISCPILOT01","DM","01-718-1101",NA,NA,"ITT","Intent to Treat Population Flag","Y","DERIVED","CLINICAL STUDY SPONSOR"
"CDISCPILOT01","DM","01-718-1101",NA,NA,"SAFETY","Safety Population Flag","Y","DERIVED","CLINICAL STUDY SPONSOR"
"CDISCPILOT01","DM","01-718-1139",NA,NA,"COMPLT16","Completers of Week 16 Population Flag","Y","DERIVED","CLINICAL STUDY SPONSOR"
"CDISCPILOT01","DM","01-718-1139",NA,NA,"COMPLT24","Completers of Week 24 Population Flag","Y","DERIVED","CLINICAL STUDY SPONSOR"
"CDISCPILOT01","DM","01-718-1139",NA,NA,"COMPLT8","Completers of Week 8 Population Flag","Y","DERIVED","CLINICAL STUDY SPONSOR"
"CDISCPILOT01","DM","01-718-1139",NA,NA,"EFFICACY","Efficacy Population Flag","Y","DERIVED","CLINICAL STUDY SPONSOR"
"CDISCPILOT01","DM","01-718-1139",NA,NA,"ITT","Intent to Treat Population Flag","Y","DERIVED","CLINICAL STUDY SPONSOR"
"CDISCPILOT01","DM","01-718-1139",NA,NA,"SAFETY","Safety Population Flag","Y","DERIVED","CLINICAL STUDY SPONSOR"
"CDISCPILOT01","DM","01-718-1150",NA,NA,"COMPLT16","Completers of Week 16 Population Flag","Y","DERIVED","CLINICAL STUDY SPONSOR"
"CDISCPILOT01","DM","01-718-1150",NA,NA,"COMPLT24","Completers of Week 24 Population Flag","Y","DERIVED","CLINICAL STUDY SPONSOR"
"CDISCPILOT01","DM","01-718-1150",NA,NA,"COMPLT8","Completers of Week 8 Population Flag","Y","DERIVED","CLINICAL STUDY SPONSOR"
"CDISCPILOT01","DM","01-718-1150",NA,NA,"EFFICACY","Efficacy Population Flag","Y","DERIVED","CLINICAL STUDY SPONSOR"
"CDISCPILOT01","DM","01-718-1150",NA,NA,"ITT","Intent to Treat Population Flag","Y","DERIVED","CLINICAL STUDY SPONSOR"
"CDISCPILOT01","DM","01-718-1150",NA,NA,"SAFETY","Safety Population Flag","Y","DERIVED","CLINICAL STUDY SPONSOR"
"CDISCPILOT01","DM","01-718-1170",NA,NA,"EFFICACY","Efficacy Population Flag","Y","DERIVED","CLINICAL STUDY SPONSOR"
"CDISCPILOT01","DM","01-718-1170",NA,NA,"ITT","Intent to Treat Population Flag","Y","DERIVED","CLINICAL STUDY SPONSOR"
"CDISCPILOT01","DM","01-718-1170",NA,NA,"SAFETY","Safety Population Flag","Y","DERIVED","CLINICAL STUDY SPONSOR"
"CDISCPILOT01","DM","01-718-1172",NA,NA,"COMPLT8","Completers of Week 8 Population Flag","Y","DERIVED","CLINICAL STUDY SPONSOR"
"CDISCPILOT01","DM","01-718-1172",NA,NA,"EFFICACY","Efficacy Population Flag","Y","DERIVED","CLINICAL STUDY SPONSOR"
"CDISCPILOT01","DM","01-718-1172",NA,NA,"ITT","Intent to Treat Population Flag","Y","DERIVED","CLINICAL STUDY SPONSOR"
"CDISCPILOT01","DM","01-718-1172",NA,NA,"SAFETY","Safety Population Flag","Y","DERIVED","CLINICAL STUDY SPONSOR"
"CDISCPILOT01","DM","01-718-1250",NA,NA,"COMPLT16","Completers of Week 16 Population Flag","Y","DERIVED","CLINICAL STUDY SPONSOR"
"CDISCPILOT01","DM","01-718-1250",NA,NA,"COMPLT8","Completers of Week 8 Population Flag","Y","DERIVED","CLINICAL STUDY SPONSOR"
"CDISCPILOT01","DM","01-718-1250",NA,NA,"EFFICACY","Efficacy Population Flag","Y","DERIVED","CLINICAL STUDY SPONSOR"
"CDISCPILOT01","DM","01-718-1250",NA,NA,"ITT","Intent to Treat Population Flag","Y","DERIVED","CLINICAL STUDY SPONSOR"
"CDISCPILOT01","DM","01-718-1250",NA,NA,"SAFETY","Safety Population Flag","Y","DERIVED","CLINICAL STUDY SPONSOR"
"CDISCPILOT01","DM","01-718-1254",NA,NA,"COMPLT16","Completers of Week 16 Population Flag","Y","DERIVED","CLINICAL STUDY SPONSOR"
"CDISCPILOT01","DM","01-718-1254",NA,NA,"COMPLT24","Completers of Week 24 Population Flag","Y","DERIVED","CLINICAL STUDY SPONSOR"
"CDISCPILOT01","DM","01-718-1254",NA,NA,"COMPLT8","Completers of Week 8 Population Flag","Y","DERIVED","CLINICAL STUDY SPONSOR"
"CDISCPILOT01","DM","01-718-1254",NA,NA,"EFFICACY","Efficacy Population Flag","Y","DERIVED","CLINICAL STUDY SPONSOR"
"CDISCPILOT01","DM","01-718-1254",NA,NA,"ITT","Intent to Treat Population Flag","Y","DERIVED","CLINICAL STUDY SPONSOR"
"CDISCPILOT01","DM","01-718-1254",NA,NA,"SAFETY","Safety Population Flag","Y","DERIVED","CLINICAL STUDY SPONSOR"
"CDISCPILOT01","DM","01-718-1328",NA,NA,"COMPLT8","Completers of Week 8 Population Flag","Y","DERIVED","CLINICAL STUDY SPONSOR"
"CDISCPILOT01","DM","01-718-1328",NA,NA,"EFFICACY","Efficacy Population Flag","Y","DERIVED","CLINICAL STUDY SPONSOR"
"CDISCPILOT01","DM","01-718-1328",NA,NA,"ITT","Intent to Treat Population Flag","Y","DERIVED","CLINICAL STUDY SPONSOR"
"CDISCPILOT01","DM","01-718-1328",NA,NA,"SAFETY","Safety Population Flag","Y","DERIVED","CLINICAL STUDY SPONSOR"
"CDISCPILOT01","DM","01-718-1355",NA,NA,"COMPLT16","Completers of Week 16 Population Flag","Y","DERIVED","CLINICAL STUDY SPONSOR"
"CDISCPILOT01","DM","01-718-1355",NA,NA,"COMPLT24","Completers of Week 24 Population Flag","Y","DERIVED","CLINICAL STUDY SPONSOR"
"CDISCPILOT01","DM","01-718-1355",NA,NA,"COMPLT8","Completers of Week 8 Population Flag","Y","DERIVED","CLINICAL STUDY SPONSOR"
"CDISCPILOT01","DM","01-718-1355",NA,NA,"EFFICACY","Efficacy Population Flag","Y","DERIVED","CLINICAL STUDY SPONSOR"
"CDISCPILOT01","DM","01-718-1355",NA,NA,"ITT","Intent to Treat Population Flag","Y","DERIVED","CLINICAL STUDY SPONSOR"
"CDISCPILOT01","DM","01-718-1355",NA,NA,"SAFETY","Safety Population Flag","Y","DERIVED","CLINICAL STUDY SPONSOR"
"CDISCPILOT01","DM","01-718-1371",NA,NA,"COMPLT8","Completers of Week 8 Population Flag","Y","DERIVED","CLINICAL STUDY SPONSOR"
"CDISCPILOT01","DM","01-718-1371",NA,NA,"EFFICACY","Efficacy Population Flag","Y","DERIVED","CLINICAL STUDY SPONSOR"
"CDISCPILOT01","DM","01-718-1371",NA,NA,"ITT","Intent to Treat Population Flag","Y","DERIVED","CLINICAL STUDY SPONSOR"
"CDISCPILOT01","DM","01-718-1371",NA,NA,"SAFETY","Safety Population Flag","Y","DERIVED","CLINICAL STUDY SPONSOR"
"CDISCPILOT01","DM","01-718-1427",NA,NA,"COMPLT8","Completers of Week 8 Population Flag","Y","DERIVED","CLINICAL STUDY SPONSOR"
"CDISCPILOT01","DM","01-718-1427",NA,NA,"EFFICACY","Efficacy Population Flag","Y","DERIVED","CLINICAL STUDY SPONSOR"
"CDISCPILOT01","DM","01-718-1427",NA,NA,"ITT","Intent to Treat Population Flag","Y","DERIVED","CLINICAL STUDY SPONSOR"
"CDISCPILOT01","DM","01-718-1427",NA,NA,"SAFETY","Safety Population Flag","Y","DERIVED","CLINICAL STUDY SPONSOR"
